sessionID	subjectID	testID	trialID	itemID	type	polarity	response	RT	respKey	responseData	trialData	version	timestamp	source

4	24HRG	LOGON	0			0		0					9.6.2022 16:5 GMT+0200	138.232.1.198
4	24HRG	SST_DarkPersonality_V1	2	H2B23	HUPNO	0	POS	3083	6	pos:6,neg:1	hilfreich,Anerkennung,Unverdientes,für,ist,falsch,block:1	1.0	16:7:4	138.232.1.198
4	24HRG	SST_DarkPersonality_V1	3	H1B21	HUPNS	0	POS	2943	6	pos:6,neg:1	verletzen,Tim,möchte,Menschen,andere,unterstützen,block:1	1.0	16:7:7	138.232.1.198
4	24HRG	SST_DarkPersonality_V1	4	H3B05	HUPNS	0	POS	3177	6	pos:6,neg:5	Freund,Tim,wird,seinen,ausnutzen,bestärken,block:1	1.0	16:7:10	138.232.1.198
4	24HRG	SST_DarkPersonality_V1	5	N10_V2_8PN	N	-1	NEU	4322	5	pos:1,neg:5	Frühling ,im,Geburtstag,mein,Sommer,ist	1.0	16:7:14	138.232.1.198
4	24HRG	SST_DarkPersonality_V1	6	JC2B04	JUPNO	0	POS	3014	6	pos:6,neg:1	gesichert,wird,Macht,am,besten,aufgeteilt,block:1	1.0	16:7:18	138.232.1.198
4	24HRG	SST_DarkPersonality_V1	7	H10A18	HUPNS	0	POS	3519	3	pos:3,neg:1	aufregend,andere,beunruhigend,zu,verletzen,ist,block:1	1.0	16:7:22	138.232.1.198
4	24HRG	SST_DarkPersonality_V1	8	H5B09	HUPNS	0	NEG	3907	2	pos:4,neg:2	anvertraute,einsetzen,Geheimnisse,behüten,kann,man,block:1	1.0	16:7:25	138.232.1.198
4	24HRG	SST_DarkPersonality_V1	9	H1A20	HUPNS	0	NEG	2520	6	pos:1,neg:6	trösten,Tim,wird,Menschen,notleidende,ignorieren,block:1	1.0	16:7:30	138.232.1.198
4	24HRG	SST_DarkPersonality_V1	10	JT9A17	JUPNO	0	POS	3873	6	pos:6,neg:4	ethische,Grenzen,sind,Erfindung,eine,Notwendigkeit,block:1	1.0	16:7:32	138.232.1.198
4	24HRG	SST_DarkPersonality_V1	11	JM3B06	JUPNS	0	POS	3232	6	pos:6,neg:5	schädigen,andere,zu,ist,unvermeidlich,verboten,block:1	1.0	16:7:37	138.232.1.198
4	24HRG	SST_DarkPersonality_V1	12	H2A02	HUPNS	0	POS	2874	1	pos:1,neg:6	lobenswert,findet,Hilfsorganisationen,Tim,heutzutage,sinnlos,block:1	1.0	16:7:40	138.232.1.198
4	24HRG	SST_DarkPersonality_V1	13	N4r_V2_3PN	N	1	NEU	3282	5	pos:5,neg:6	Kinder,im,die,spielen,Wasser,Sand	1.0	16:7:43	138.232.1.198
4	24HRG	SST_DarkPersonality_V1	14	H7A12	HUPNS	0	NEG	5019	6	pos:2,neg:6	absichtlich,gestreichelt,wird,Hund,der,getreten,block:1	1.0	16:7:47	138.232.1.198
4	24HRG	SST_DarkPersonality_V1	15	N6_V2_4PN	N	-1	NEU	2922	2	pos:1,neg:2	Motorrad ,Fahrrad,fahre,dem,mit,ich	1.0	16:7:52	138.232.1.198
4	24HRG	SST_DarkPersonality_V1	16	H8B15	HUPNS	0	POS	3473	5	pos:5,neg:1	lustig,andere,verspotten,zu,unzulänglich,ist,block:1	1.0	16:7:55	138.232.1.198
4	24HRG	SST_DarkPersonality_V1	17	H1B01	HUPNS	0	POS	3556	6	pos:6,neg:1	idiotisch,Dinge,zu,teilen,ist,schön,block:1	1.0	16:7:59	138.232.1.198
4	24HRG	SST_DarkPersonality_V1	18	JT8B16	JUPNO	0	NEG	3866	1	pos:5,neg:1	erfunden,Erzählungen,Ehrlichkeit,über,inspirierend,sind,block:1	1.0	16:8:3	138.232.1.198
4	24HRG	SST_DarkPersonality_V1	19	H10B19	HUPNS	0	POS	4897	1	pos:1,neg:3	böse,von,schlau,anderen,profitieren,ist,block:1	1.0	16:8:7	138.232.1.198
4	24HRG	SST_DarkPersonality_V1	20	JS6B12	JUPNS	0	POS	3873	5	pos:5,neg:3	einige,Gruppen,überlegen,anderen,ebenbürtig,sind,block:1	1.0	16:8:12	138.232.1.198
4	24HRG	SST_DarkPersonality_V1	21	H4A06	HUPNS	0	POS	4174	1	pos:1,neg:2	armselig,spannend,andere,zu,ist,ärgern,block:1	1.0	16:8:17	138.232.1.198
4	24HRG	SST_DarkPersonality_V1	22	H6B11	HUPNO	0	POS	3455	5	pos:5,neg:3	im,Sport,spektakulär,Fouls,ungerecht,sind,block:1	1.0	16:8:21	138.232.1.198
4	24HRG	SST_DarkPersonality_V1	23	H9B17	HUPNS	0	POS	3265	4	pos:4,neg:6	für,spenden,Waisen,wichtig,ist,nutzlos,block:1	1.0	16:8:25	138.232.1.198
4	24HRG	SST_DarkPersonality_V1	24	JS3A05	JUPNS	0	NEG	3553	6	pos:5,neg:6	andere,der,Stärkere,kann,aufheitern,schikanieren,block:1	1.0	16:8:28	138.232.1.198
4	24HRG	SST_DarkPersonality_V1	25	N1r_V2_2PN	N	-1	NEU	2944	6	pos:1,neg:6	gehört,habe,ich,es,mehrmals,gesehen	1.0	16:8:32	138.232.1.198
4	24HRG	SST_DarkPersonality_V1	26	JC10B20	JUPNS	0	NEG	4371	3	pos:1,neg:3	andere,Menschen,sich,meistens,achten,auf,block:1	1.0	16:8:36	138.232.1.198
4	24HRG	SST_DarkPersonality_V1	27	H2B03	HUPNS	0	POS	3725	6	pos:6,neg:1	herablassend,Tim,behandelt,andere,immer,freundlich,block:1	1.0	16:8:40	138.232.1.198
4	24HRG	SST_DarkPersonality_V1	28	JM4A07	JUPNO	0	NEG	4024	2	pos:1,neg:2	erforderlich,hinderlich,bestehende,sind,oft,Vorschriften,block:1	1.0	16:8:44	138.232.1.198
4	24HRG	SST_DarkPersonality_V1	29	JS6A11	JUPNS	0	POS	6994	3	pos:3,neg:5	die,sind,beschäftigt,meisten,Versager,sowieso,block:1	1.0	16:8:49	138.232.1.198
4	24HRG	SST_DarkPersonality_V1	30	N30_V2_7PN	N	-1	NEU	3801	6	pos:2,neg:6	bin,draußen,immer,ich,fast,unterwegs	1.0	16:8:56	138.232.1.198
4	24HRG	SST_DarkPersonality_V1	31	JM4B08	JUPNO	0	NEG	4002	1	pos:2,neg:1	individuell,universal,moralische,sind,meistens,Standards,block:1	1.0	16:9:0	138.232.1.198
4	24HRG	SST_DarkPersonality_V1	32	JS5B10	JUPNS	0	ERROR	4200	6	pos:4,neg:2	die,Verachtung,Menschen,Respekt,meisten,verdienen,block:1	1.0	16:9:4	138.232.1.198
4	24HRG	SST_DarkPersonality_V1	33	H2A22	HUPNS	0	POS	3428	1	pos:1,neg:6	lachen,andere,Menschen,sollen,oft,leiden,block:1	1.0	16:9:9	138.232.1.198
4	24HRG	SST_DarkPersonality_V1	34	H6A10	HUPNS	0	ERROR	3353	6	pos:3,neg:5	der,kleine,gelobt,Tim,verhauen,wird,block:1	1.0	16:9:12	138.232.1.198
4	24HRG	SST_DarkPersonality_V1	35	H8A14	HUPNS	0	ERROR	4483	6	pos:1,neg:5	ekelhaft,über,Scherze,andere,spaßig,sind,block:1	1.0	16:9:16	138.232.1.198
4	24HRG	SST_DarkPersonality_V1	36	JT5A09	JUPNO	0	POS	3065	2	pos:2,neg:4	ist,unentbehrlich,Moral,überflüssig,in,Notzeiten,block:1	1.0	16:9:21	138.232.1.198
4	24HRG	SST_DarkPersonality_V1	37	JS1B02	JUPNS	0	NEG	2936	1	pos:6,neg:1	ausbeuten,schwächere,kann,Menschen,man,ermutigen,block:1	1.0	16:9:24	138.232.1.198
4	24HRG	SST_DarkPersonality_V1	38	JM7A13	JUPNO	0	POS	3507	2	pos:2,neg:6	Entscheidungen,kulturell,über,Moral,sind,persönlich,block:1	1.0	16:9:28	138.232.1.198
4	24HRG	SST_DarkPersonality_V1	39	JC1A21	JUPNS	0	POS	3280	1	pos:1,neg:6	großzügig,an,Hilfsorganisationen,spenden,ist,blauäugig,block:1	1.0	16:9:31	138.232.1.198
4	24HRG	SST_DarkPersonality_V1	40	H7B13	HUPNS	0	POS	3576	6	pos:6,neg:2	langsam,gequält,wird,Tier,das,gefüttert,block:1	1.0	16:9:35	138.232.1.198
4	24HRG	SST_DarkPersonality_V1	41	H4B07	HUPNS	0	NEG	5242	1	pos:2,neg:1	geprügelt,getröstet,der,kleine,wird,Tim,block:1	1.0	16:9:39	138.232.1.198
4	24HRG	SST_DarkPersonality_V1	42	JC10A19	JUPNS	0	POS	4008	3	pos:3,neg:1	blödsinnig,für,bewundernswert,Charities,spenden,ist,block:1	1.0	16:9:44	138.232.1.198
4	24HRG	SST_DarkPersonality_V1	43	H9A16	HUPNS	0	NEG	4040	4	pos:6,neg:4	im,sieht,Fernsehen,Boxkämpfe,Tim,Tennis,block:1	1.0	16:9:49	138.232.1.198
4	24HRG	SST_DarkPersonality_V1	44	JN2A03	JUPNS	0	NEG	4289	6	pos:1,neg:6	nutzen,Anführer,Macht,sollen,ihre,auskosten,block:1	1.0	16:9:53	138.232.1.198
4	24HRG	SST_DarkPersonality_V1	45	JS9B18	JUPNS	0	NEG	3880	6	pos:4,neg:6	Menschen,schwache,sind,gemein,weniger,wert,block:1	1.0	16:9:58	138.232.1.198
4	24HRG	SST_DarkPersonality_V1	46	JA7B14	JUPNS	0	NEG	3664	2	pos:6,neg:2	anderen,einfältig,zu,folgen,ist,intelligent,block:1	1.0	16:10:2	138.232.1.198
4	24HRG	SST_DarkPersonality_V1	47	JC8A15	JUPNS	0	POS	4520	1	pos:1,neg:5	nett,anderen,helfen,zu,dumm,ist,block:1	1.0	16:10:6	138.232.1.198
4	24HRG	SST_DarkPersonality_V1	48	H3A04	HUPNO	0	POS	4672	5	pos:5,neg:6	Raub,als,Einkommensquelle,ist,ungerecht,klug,block:1	1.0	16:10:11	138.232.1.198
4	24HRG	SST_DarkPersonality_V1	49	JC1A01	JUPNS	0	NEG	4801	6	pos:1,neg:6	verstehen,man,kann,Menschen,leicht,manipulieren,block:1	1.0	16:10:16	138.232.1.198
4	24HRG	SST_DarkPersonality_V1	50	H5A08	HUPNS	0	POS	5719	2	pos:2,neg:4	wurde,geküsst,Tim,geschlagen,bereits,mehrmals,block:1	1.0	16:10:21	138.232.1.198
4	24HRG	SSTWW	51	SSTWW1	SSTWW	-1	0	4202	1	Nein	Haben Sie den vorausgegangenen Test bereits in einer Studie in der Vergangenheit bearbeitet?,Ja,Nein,Weiß ich nicht mehr	1.0	16:10:32	138.232.1.198
4	24HRG	LPFSBF	52	LPFSBF01	self	1	1	4404	0	trifft überhaupt nicht zu	Ich weiß oft nicht wer ich wirklich bin.,trifft überhaupt nicht zu,trifft eher nicht zu,trifft eher zu,trifft genau zu	1.0	16:10:41	138.232.1.198
4	24HRG	LPFSBF	53	LPFSBF02	self	1	1	1805	0	trifft überhaupt nicht zu	Ich denke oft sehr schlecht über mich selbst.,trifft überhaupt nicht zu,trifft eher nicht zu,trifft eher zu,trifft genau zu	1.0	16:10:46	138.232.1.198
4	24HRG	LPFSBF	54	LPFSBF03	self	1	1	2193	0	trifft überhaupt nicht zu	Meine Gefühle ändern sich, ohne dass ich sie im Griff habe.,trifft überhaupt nicht zu,trifft eher nicht zu,trifft eher zu,trifft genau zu	1.0	16:10:48	138.232.1.198
4	24HRG	LPFSBF	55	LPFSBF04	self	1	1	2395	0	trifft überhaupt nicht zu	Ich habe keine Ahnung, wo ich im Leben hin will.,trifft überhaupt nicht zu,trifft eher nicht zu,trifft eher zu,trifft genau zu	1.0	16:10:51	138.232.1.198
4	24HRG	LPFSBF	56	LPFSBF05	self	1	1	2143	0	trifft überhaupt nicht zu	Ich verstehe oft meine eigenen Gedanken und Gefühle nicht.,trifft überhaupt nicht zu,trifft eher nicht zu,trifft eher zu,trifft genau zu	1.0	16:10:54	138.232.1.198
4	24HRG	LPFSBF	57	LPFSBF06	self	1	1	1446	0	trifft überhaupt nicht zu	Ich stelle oft unrealistische Anforderungen an mich selbst.,trifft überhaupt nicht zu,trifft eher nicht zu,trifft eher zu,trifft genau zu	1.0	16:10:56	138.232.1.198
4	24HRG	LPFSBF	58	LPFSBF07	interpersonal	1	1	2087	0	trifft überhaupt nicht zu	Ich habe oft Schwierigkeiten, die Gedanken und Gefühle anderer zu verstehen.,trifft überhaupt nicht zu,trifft eher nicht zu,trifft eher zu,trifft genau zu	1.0	16:10:58	138.232.1.198
4	24HRG	LPFSBF	59	LPFSBF08	interpersonal	1	1	1915	0	trifft überhaupt nicht zu	Ich kann es oft schwer aushalten, wenn andere eine andere Meinung haben.,trifft überhaupt nicht zu,trifft eher nicht zu,trifft eher zu,trifft genau zu	1.0	16:11:0	138.232.1.198
4	24HRG	LPFSBF	60	LPFSBF09	interpersonal	1	1	3095	0	trifft überhaupt nicht zu	Ich verstehe oft nicht ganz warum mein Verhalten einen bestimmten Einfluss auf andere hat.,trifft überhaupt nicht zu,trifft eher nicht zu,trifft eher zu,trifft genau zu	1.0	16:11:2	138.232.1.198
4	24HRG	LPFSBF	61	LPFSBF10	interpersonal	1	1	1934	0	trifft überhaupt nicht zu	Meine Beziehungen und Freundschaften halten nie lange.,trifft überhaupt nicht zu,trifft eher nicht zu,trifft eher zu,trifft genau zu	1.0	16:11:6	138.232.1.198
4	24HRG	LPFSBF	62	LPFSBF11	interpersonal	1	1	2548	0	trifft überhaupt nicht zu	Ich fühle mich oft sehr verletzlich, wenn Beziehungen persönlicher werden.,trifft überhaupt nicht zu,trifft eher nicht zu,trifft eher zu,trifft genau zu	1.0	16:11:8	138.232.1.198
4	24HRG	LPFSBF	63	LPFSBF12	interpersonal	1	1	3291	0	trifft überhaupt nicht zu	Es gelingt mir häufig nicht, mit anderen auf eine Weise zusammen zu arbeiten, die für beide Seiten zufriedenstellend ist.,trifft überhaupt nicht zu,trifft eher nicht zu,trifft eher zu,trifft genau zu	1.0	16:11:11	138.232.1.198
4	24HRG	ADS	64	ADS01	ADS	1	0	3610	0	selten	Während der letzten Wochen...<br><br>...haben mich Dinge beunruhigt die mir sonst nichts ausmachen.,selten,manchmal,öfters,meistens	1.0	16:11:29	138.232.1.198
4	24HRG	ADS	65	ADS02	ADS	1	0	1320	0	selten	Während der letzten Wochen...<br><br>...hatte ich kaum Appetit.,selten,manchmal,öfters,meistens	1.0	16:11:33	138.232.1.198
4	24HRG	ADS	66	ADS03	ADS	1	0	2384	0	selten	Während der letzten Wochen...<br><br>...konnte ich meine trübsinnige Laune nicht loswerden, obwohl meine Freunde oder Familie versuchten, mich aufzumuntern.,selten,manchmal,öfters,meistens	1.0	16:11:35	138.232.1.198
4	24HRG	ADS	67	ADS04	ADS	-1	3	3668	0	selten	Während der letzten Wochen...<br><br>...kam ich mir genauso gut vor wie andere.,selten,manchmal,öfters,meistens	1.0	16:11:37	138.232.1.198
4	24HRG	ADS	68	ADS05	ADS	1	0	1988	0	selten	Während der letzten Wochen...<br><br>...hatte ich Mühe, mich zu konzentrieren.,selten,manchmal,öfters,meistens	1.0	16:11:41	138.232.1.198
4	24HRG	ADS	69	ADS06	ADS	1	0	977	0	selten	Während der letzten Wochen...<br><br>...war ich deprimiert / niedergeschlagen.,selten,manchmal,öfters,meistens	1.0	16:11:44	138.232.1.198
4	24HRG	ADS	70	ADS07	ADS	1	0	1301	0	selten	Während der letzten Wochen...<br><br>...war alles anstrengend für mich.,selten,manchmal,öfters,meistens	1.0	16:11:45	138.232.1.198
4	24HRG	ADS	71	ADS08	ADS	-1	3	1349	0	selten	Während der letzten Wochen...<br><br>...dachte ich voller Hoffnung an die Zukunft.,selten,manchmal,öfters,meistens	1.0	16:11:47	138.232.1.198
4	24HRG	ADS	72	ADS09	ADS	1	0	2827	0	selten	Während der letzten Wochen...<br><br>...dachte ich, mein Leben ist ein einziger Fehlschlag.,selten,manchmal,öfters,meistens	1.0	16:11:48	138.232.1.198
4	24HRG	ADS	73	ADS10	ADS	1	0	1382	0	selten	Während der letzten Wochen...<br><br>...hatte ich Angst.,selten,manchmal,öfters,meistens	1.0	16:11:51	138.232.1.198
4	24HRG	ADS	74	ADS11	ADS	1	0	1561	0	selten	Während der letzten Wochen...<br><br>...habe ich schlecht geschlafen.,selten,manchmal,öfters,meistens	1.0	16:11:53	138.232.1.198
4	24HRG	ADS	75	ADS12	ADS	-1	3	1416	0	selten	Während der letzten Wochen...<br><br>...war ich fröhlich gestimmt.,selten,manchmal,öfters,meistens	1.0	16:11:55	138.232.1.198
4	24HRG	ADS	76	ADS13	ADS	1	0	1642	0	selten	Während der letzten Wochen...<br><br>...habe ich weniger als sonst geredet.,selten,manchmal,öfters,meistens	1.0	16:11:57	138.232.1.198
4	24HRG	ADS	77	ADS14	ADS	1	0	1125	0	selten	Während der letzten Wochen...<br><br>...fühlte ich mich einsam.,selten,manchmal,öfters,meistens	1.0	16:11:59	138.232.1.198
4	24HRG	ADS	78	ADS15	ADS	1	0	1500	0	selten	Während der letzten Wochen...<br><br>...waren die Leute unfreundlich zu mir.,selten,manchmal,öfters,meistens	1.0	16:12:0	138.232.1.198
4	24HRG	ADS	79	ADS16	ADS	-1	3	1540	0	selten	Während der letzten Wochen...<br><br>...habe ich das Leben genossen.,selten,manchmal,öfters,meistens	1.0	16:12:2	138.232.1.198
4	24HRG	ADS	80	ADS17	ADS	1	0	985	0	selten	Während der letzten Wochen...<br><br>...musste ich weinen.,selten,manchmal,öfters,meistens	1.0	16:12:4	138.232.1.198
4	24HRG	ADS	81	ADS18	ADS	1	0	1013	0	selten	Während der letzten Wochen...<br><br>...war ich traurig.,selten,manchmal,öfters,meistens	1.0	16:12:5	138.232.1.198
4	24HRG	ADS	82	ADS19	ADS	1	0	1672	0	selten	Während der letzten Wochen...<br><br>...hatte ich das Gefühl, dass mich die Leute nicht leiden können.,selten,manchmal,öfters,meistens	1.0	16:12:6	138.232.1.198
4	24HRG	ADS	83	ADS20	ADS	1	0	977	0	selten	Während der letzten Wochen...<br><br>...konnte ich mich zu nichts aufraffen.,selten,manchmal,öfters,meistens	1.0	16:12:8	138.232.1.198
4	24HRG	PID5BF34	84	PID5BF01	negaffect	1	0	2491	0	trifft überhaupt nicht zu	Ich reagiere viel emotionaler als fast alle anderen Menschen.,trifft überhaupt nicht zu,trifft eher nicht zu,trifft eher zu,trifft genau zu	1.0	16:12:19	138.232.1.198
4	24HRG	PID5BF34	85	PID5BF02	antagonism	1	0	1793	0	trifft überhaupt nicht zu	Ich bin gut darin, Leute reinzulegen.,trifft überhaupt nicht zu,trifft eher nicht zu,trifft eher zu,trifft genau zu	1.0	16:12:22	138.232.1.198
4	24HRG	PID5BF34	86	PID5BF03	disinhibition	1	0	2538	0	trifft überhaupt nicht zu	Ich gehe oft ziemlich nachlässig mit meinen Sachen und denen anderer um.,trifft überhaupt nicht zu,trifft eher nicht zu,trifft eher zu,trifft genau zu	1.0	16:12:24	138.232.1.198
4	24HRG	PID5BF34	87	PID5BF04	detachment	1	0	1346	0	trifft überhaupt nicht zu	Ich halte Abstand zu Menschen.,trifft überhaupt nicht zu,trifft eher nicht zu,trifft eher zu,trifft genau zu	1.0	16:12:27	138.232.1.198
4	24HRG	PID5BF34	88	PID5BF05	psychoticism	1	0	2303	0	trifft überhaupt nicht zu	Ich sehe zwischen den Dingen oft ungewöhnliche Zusammenhänge, die anderen Menschen entgehen.,trifft überhaupt nicht zu,trifft eher nicht zu,trifft eher zu,trifft genau zu	1.0	16:12:29	138.232.1.198
4	24HRG	PID5BF34	89	PID5BF06	anancasm	1	0	1847	0	trifft überhaupt nicht zu	Ich gehe Dinge immer auf die gleiche Weise an, auch wenn es so nicht funktioniert.,trifft überhaupt nicht zu,trifft eher nicht zu,trifft eher zu,trifft genau zu	1.0	16:12:31	138.232.1.198
4	24HRG	PID5BF34	90	PID5BF07	negaffect	1	0	1339	0	trifft überhaupt nicht zu	Ich mache mir ständig über irgendetwas Sorgen.,trifft überhaupt nicht zu,trifft eher nicht zu,trifft eher zu,trifft genau zu	1.0	16:12:33	138.232.1.198
4	24HRG	PID5BF34	91	PID5BF08	antagonism	1	0	1742	0	trifft überhaupt nicht zu	Manchmal muss man vor anderen übertreiben, um weiterzukommen.,trifft überhaupt nicht zu,trifft eher nicht zu,trifft eher zu,trifft genau zu	1.0	16:12:35	138.232.1.198
4	24HRG	PID5BF34	92	PID5BF09	disinhibition	1	0	1380	0	trifft überhaupt nicht zu	Es kommt mir vor, als würde ich völlig impulsiv handeln.,trifft überhaupt nicht zu,trifft eher nicht zu,trifft eher zu,trifft genau zu	1.0	16:12:37	138.232.1.198
4	24HRG	PID5BF34	93	PID5BF10	detachment	1	0	1185	0	trifft überhaupt nicht zu	Nichts scheint mich wirklich zu interessieren.,trifft überhaupt nicht zu,trifft eher nicht zu,trifft eher zu,trifft genau zu	1.0	16:12:39	138.232.1.198
4	24HRG	PID5BF34	94	PID5BF11	psychoticism	1	0	1557	0	trifft überhaupt nicht zu	Man hat mir gesagt, dass meine Art zu denken wirklich seltsam ist.,trifft überhaupt nicht zu,trifft eher nicht zu,trifft eher zu,trifft genau zu	1.0	16:12:40	138.232.1.198
4	24HRG	PID5BF34	95	PID5BF12	anancasm	1	0	2146	0	trifft überhaupt nicht zu	Auch wenn es andere zum Wahnsinn treibt, bestehe ich darauf, alles perfekt zu machen.,trifft überhaupt nicht zu,trifft eher nicht zu,trifft eher zu,trifft genau zu	1.0	16:12:42	138.232.1.198
4	24HRG	PID5BF34	96	PID5BF13	negaffect	1	0	1368	0	trifft überhaupt nicht zu	Ich mache mir viele Sorgen darüber, allein zu sein.,trifft überhaupt nicht zu,trifft eher nicht zu,trifft eher zu,trifft genau zu	1.0	16:12:45	138.232.1.198
4	24HRG	PID5BF34	97	PID5BF14	antagonism	1	0	2941	0	trifft überhaupt nicht zu	Es steht mir zu, besonders behandelt zu werden.,trifft überhaupt nicht zu,trifft eher nicht zu,trifft eher zu,trifft genau zu	1.0	16:12:46	138.232.1.198
4	24HRG	PID5BF34	98	PID5BF15	disinhibition	1	0	1763	0	trifft überhaupt nicht zu	Ich verliere in Gesprächen den Faden, weil mich andere Dinge ablenken.,trifft überhaupt nicht zu,trifft eher nicht zu,trifft eher zu,trifft genau zu	1.0	16:12:49	138.232.1.198
4	24HRG	PID5BF34	99	PID5BF16	detachment	1	0	2656	0	trifft überhaupt nicht zu	Ich halte romantische Gefühle lieber aus meinem Leben heraus.,trifft überhaupt nicht zu,trifft eher nicht zu,trifft eher zu,trifft genau zu	1.0	16:12:52	138.232.1.198
4	24HRG	PID5BF34	100	PID5BF17	psychoticism	1	0	3354	0	trifft überhaupt nicht zu	Es ist komisch, aber manchmal kommen mir alltägliche Gegenstände anders vor als sonst.,trifft überhaupt nicht zu,trifft eher nicht zu,trifft eher zu,trifft genau zu	1.0	16:12:54	138.232.1.198
4	24HRG	PID5BF34	101	PID5BF18	anancasm	1	0	2775	0	trifft überhaupt nicht zu	Ich halte an einer bestimmten Herangehensweise fest, auch wenn klar ist, dass es so nicht funktionieren wird.,trifft überhaupt nicht zu,trifft eher nicht zu,trifft eher zu,trifft genau zu	1.0	16:12:58	138.232.1.198
4	24HRG	PID5BF34	102	PID5BF19	negaffect	1	0	1515	0	trifft überhaupt nicht zu	Ich werde schnell emotional, oft aus geringstem Anlass.,trifft überhaupt nicht zu,trifft eher nicht zu,trifft eher zu,trifft genau zu	1.0	16:13:1	138.232.1.198
4	24HRG	PID5BF34	103	PID5BF20	antagonism	1	0	1497	0	trifft überhaupt nicht zu	Es fällt mir leicht, andere auszunutzen.,trifft überhaupt nicht zu,trifft eher nicht zu,trifft eher zu,trifft genau zu	1.0	16:13:3	138.232.1.198
4	24HRG	PID5BF34	104	PID5BF21	disinhibition	1	0	2585	0	trifft überhaupt nicht zu	Ich vergesse oft, meine Rechnungen zu bezahlen.,trifft überhaupt nicht zu,trifft eher nicht zu,trifft eher zu,trifft genau zu	1.0	16:13:5	138.232.1.198
4	24HRG	PID5BF34	105	PID5BF22	detachment	1	0	1695	0	trifft überhaupt nicht zu	Ich mag es nicht, Zeit mit anderen zu verbringen.,trifft überhaupt nicht zu,trifft eher nicht zu,trifft eher zu,trifft genau zu	1.0	16:13:8	138.232.1.198
4	24HRG	PID5BF34	106	PID5BF23	psychoticism	1	0	2088	0	trifft überhaupt nicht zu	Ich hatte einige wirklich seltsame Erlebnisse, die sehr schwer zu erklären sind.,trifft überhaupt nicht zu,trifft eher nicht zu,trifft eher zu,trifft genau zu	1.0	16:13:10	138.232.1.198
4	24HRG	PID5BF34	107	PID5BF24	anancasm	1	0	4855	0	trifft überhaupt nicht zu	Ich versuche Dinge weiter zu perfektionieren, auch wenn ich sie wahrscheinlich schon so gut wie möglich hinbekommen habe.,trifft überhaupt nicht zu,trifft eher nicht zu,trifft eher zu,trifft genau zu	1.0	16:13:12	138.232.1.198
4	24HRG	PID5BF34	108	PID5BF25	negaffect	1	0	2624	0	trifft überhaupt nicht zu	Ich mache mir über fast alles Sorgen.,trifft überhaupt nicht zu,trifft eher nicht zu,trifft eher zu,trifft genau zu	1.0	16:13:17	138.232.1.198
4	24HRG	PID5BF34	109	PID5BF26	antagonism	1	0	3459	0	trifft überhaupt nicht zu	Ich biege mir die Wahrheit zurecht, wenn es zu meinem Vorteil ist.,trifft überhaupt nicht zu,trifft eher nicht zu,trifft eher zu,trifft genau zu	1.0	16:13:20	138.232.1.198
4	24HRG	PID5BF34	110	PID5BF27	disinhibition	1	0	3970	0	trifft überhaupt nicht zu	Obwohl ich es eigentlich besser weiß, treffe ich immer wieder überstürzte Entscheidungen.,trifft überhaupt nicht zu,trifft eher nicht zu,trifft eher zu,trifft genau zu	1.0	16:13:24	138.232.1.198
4	24HRG	PID5BF34	111	PID5BF28	detachment	1	0	2953	0	trifft überhaupt nicht zu	Ich bin selten von irgendetwas begeistert.,trifft überhaupt nicht zu,trifft eher nicht zu,trifft eher zu,trifft genau zu	1.0	16:13:28	138.232.1.198
4	24HRG	PID5BF34	112	PID5BF29	psychoticism	1	0	3179	0	trifft überhaupt nicht zu	Ich habe mehrere Angewohnheiten, die andere exzentrisch oder seltsam finden.,trifft überhaupt nicht zu,trifft eher nicht zu,trifft eher zu,trifft genau zu	1.0	16:13:32	138.232.1.198
4	24HRG	PID5BF34	113	PID5BF30	negaffect	1	0	3210	0	trifft überhaupt nicht zu	Ich ertrage es nicht, allein gelassen zu werden – nicht mal für ein paar Stunden.,trifft überhaupt nicht zu,trifft eher nicht zu,trifft eher zu,trifft genau zu	1.0	16:13:35	138.232.1.198
4	24HRG	PID5BF34	114	PID5BF31	antagonism	1	0	1677	0	trifft überhaupt nicht zu	Ich muss mich oft mit Leuten beschäftigen, die weniger wichtig sind als ich.,trifft überhaupt nicht zu,trifft eher nicht zu,trifft eher zu,trifft genau zu	1.0	16:13:39	138.232.1.198
4	24HRG	PID5BF34	115	PID5BF32	disinhibition	1	0	2038	0	trifft überhaupt nicht zu	Ich lasse mich leicht ablenken.,trifft überhaupt nicht zu,trifft eher nicht zu,trifft eher zu,trifft genau zu	1.0	16:13:41	138.232.1.198
4	24HRG	PID5BF34	116	PID5BF33	detachment	1	0	2016	0	trifft überhaupt nicht zu	Ich beende Beziehungen, wenn sie enger werden.,trifft überhaupt nicht zu,trifft eher nicht zu,trifft eher zu,trifft genau zu	1.0	16:13:43	138.232.1.198
4	24HRG	PID5BF34	117	PID5BF34	psychoticism	1	0	2971	0	trifft überhaupt nicht zu	Wenn ich einen vertrauten Gegenstand anschaue, ist es manchmal so, als würde ich ihn zum ersten Mal sehen.,trifft überhaupt nicht zu,trifft eher nicht zu,trifft eher zu,trifft genau zu	1.0	16:13:45	138.232.1.198
4	24HRG	SD4	118	SD401	Mach	1	1	2306	0	1 (stimme überhaupt nicht zu)	Es ist nicht ratsam, seine Geheimnisse preiszugeben.,1 (stimme überhaupt nicht zu),2,3,4,5 (stimme voll zu)	1.0	16:13:52	138.232.1.198
4	24HRG	SD4	119	SD402	Mach	1	1	1613	0	1 (stimme überhaupt nicht zu)	Man muss die wichtigen Personen auf seine Seite ziehen, koste es, was es wolle.,1 (stimme überhaupt nicht zu),2,3,4,5 (stimme voll zu)	1.0	16:13:55	138.232.1.198
4	24HRG	SD4	120	SD403	Mach	1	1	1714	0	1 (stimme überhaupt nicht zu)	Vermeide direkte Konflikte mit Anderen, denn sie könnten in der Zukunft von Nutzen sein.,1 (stimme überhaupt nicht zu),2,3,4,5 (stimme voll zu)	1.0	16:13:57	138.232.1.198
4	24HRG	SD4	121	SD404	Mach	1	1	911	0	1 (stimme überhaupt nicht zu)	Verhalte dich unauffällig, wenn du deinen Willen durchsetzen willst.,1 (stimme überhaupt nicht zu),2,3,4,5 (stimme voll zu)	1.0	16:13:59	138.232.1.198
4	24HRG	SD4	122	SD405	Mach	1	1	1190	0	1 (stimme überhaupt nicht zu)	Die Situation zu manipulieren, erfordert Planung.,1 (stimme überhaupt nicht zu),2,3,4,5 (stimme voll zu)	1.0	16:14:0	138.232.1.198
4	24HRG	SD4	123	SD406	Mach	1	1	1642	0	1 (stimme überhaupt nicht zu)	Schmeicheln ist ein gutes Mittel, um Leute auf deine Seite zu ziehen.,1 (stimme überhaupt nicht zu),2,3,4,5 (stimme voll zu)	1.0	16:14:1	138.232.1.198
4	24HRG	SD4	124	SD407	Mach	1	1	1229	0	1 (stimme überhaupt nicht zu)	Ich liebe es, wenn ein kniffliger Plan gelingt.,1 (stimme überhaupt nicht zu),2,3,4,5 (stimme voll zu)	1.0	16:14:3	138.232.1.198
4	24HRG	SD4	125	SD408	Narc	1	1	1438	0	1 (stimme überhaupt nicht zu)	Andere sehen mich als geborene Führungsperson.,1 (stimme überhaupt nicht zu),2,3,4,5 (stimme voll zu)	1.0	16:14:5	138.232.1.198
4	24HRG	SD4	126	SD409	Narc	1	1	1601	0	1 (stimme überhaupt nicht zu)	Ich habe eine einzigartige Begabung, andere zu überzeugen.,1 (stimme überhaupt nicht zu),2,3,4,5 (stimme voll zu)	1.0	16:14:6	138.232.1.198
4	24HRG	SD4	127	SD410	Narc	1	1	1356	0	1 (stimme überhaupt nicht zu)	Gruppenaktivitäten sind ohne mich eher langweilig.,1 (stimme überhaupt nicht zu),2,3,4,5 (stimme voll zu)	1.0	16:14:8	138.232.1.198
4	24HRG	SD4	128	SD411	Narc	1	1	1672	0	1 (stimme überhaupt nicht zu)	Ich weiß, dass ich etwas Besonderes bin, da mir andere das immer wieder sagen.,1 (stimme überhaupt nicht zu),2,3,4,5 (stimme voll zu)	1.0	16:14:10	138.232.1.198
4	24HRG	SD4	129	SD412	Narc	1	1	1218	0	1 (stimme überhaupt nicht zu)	Ich habe einige außergewöhnliche Qualitäten.,1 (stimme überhaupt nicht zu),2,3,4,5 (stimme voll zu)	1.0	16:14:12	138.232.1.198
4	24HRG	SD4	130	SD413	Narc	1	1	2445	0	1 (stimme überhaupt nicht zu)	Ich werde in der Zukunft wahrscheinlich ein Star in einem bestimmten Bereich sein.,1 (stimme überhaupt nicht zu),2,3,4,5 (stimme voll zu)	1.0	16:14:14	138.232.1.198
4	24HRG	SD4	131	SD414	Narc	1	1	2000	0	1 (stimme überhaupt nicht zu)	Ich mag es, hin und wieder anzugeben.,1 (stimme überhaupt nicht zu),2,3,4,5 (stimme voll zu)	1.0	16:14:16	138.232.1.198
4	24HRG	SD4	132	SD415	Psyc	1	1	1556	0	1 (stimme überhaupt nicht zu)	Menschen sagen oft, dass ich außer Kontrolle bin.,1 (stimme überhaupt nicht zu),2,3,4,5 (stimme voll zu)	1.0	16:14:19	138.232.1.198
4	24HRG	SD4	133	SD416	Psyc	1	1	2751	0	1 (stimme überhaupt nicht zu)	Ich neige dazu, gegen Autoritäten und deren Regeln zu kämpfen.,1 (stimme überhaupt nicht zu),2,3,4,5 (stimme voll zu)	1.0	16:14:21	138.232.1.198
4	24HRG	SD4	134	SD417	Psyc	1	1	2862	0	1 (stimme überhaupt nicht zu)	Ich war in mehr Auseinandersetzungen verwickelt als die meisten Menschen meines Alters und Geschlechts.,1 (stimme überhaupt nicht zu),2,3,4,5 (stimme voll zu)	1.0	16:14:24	138.232.1.198
4	24HRG	SD4	135	SD418	Psyc	1	1	1511	0	1 (stimme überhaupt nicht zu)	Ich neige dazu, mich kopfüber in etwas zu stürzen ohne Fragen zu stellen.,1 (stimme überhaupt nicht zu),2,3,4,5 (stimme voll zu)	1.0	16:14:27	138.232.1.198
4	24HRG	SD4	136	SD419	Psyc	1	1	1062	0	1 (stimme überhaupt nicht zu)	Ich hatte schon Schwierigkeiten mit dem Gesetz.,1 (stimme überhaupt nicht zu),2,3,4,5 (stimme voll zu)	1.0	16:14:29	138.232.1.198
4	24HRG	SD4	137	SD420	Psyc	1	1	1303	0	1 (stimme überhaupt nicht zu)	Ich gerate manchmal in gefährliche Situationen.,1 (stimme überhaupt nicht zu),2,3,4,5 (stimme voll zu)	1.0	16:14:30	138.232.1.198
4	24HRG	SD4	138	SD421	Psyc	1	1	1398	0	1 (stimme überhaupt nicht zu)	Leute, die sich mit mir anlegen, bereuen es immer,1 (stimme überhaupt nicht zu),2,3,4,5 (stimme voll zu)	1.0	16:14:32	138.232.1.198
4	24HRG	SD4	139	SD422	Sad	1	1	1450	0	1 (stimme überhaupt nicht zu)	Bei einem Faustkampf zuzuschauen begeistert mich.,1 (stimme überhaupt nicht zu),2,3,4,5 (stimme voll zu)	1.0	16:14:33	138.232.1.198
4	24HRG	SD4	140	SD423	Sad	1	1	1228	0	1 (stimme überhaupt nicht zu)	Ich genieße gewalttätige Filme und Computerspiele.,1 (stimme überhaupt nicht zu),2,3,4,5 (stimme voll zu)	1.0	16:14:35	138.232.1.198
4	24HRG	SD4	141	SD424	Sad	1	1	1383	0	1 (stimme überhaupt nicht zu)	Es ist witzig, wenn Idioten auf die Nase fallen.,1 (stimme überhaupt nicht zu),2,3,4,5 (stimme voll zu)	1.0	16:14:37	138.232.1.198
4	24HRG	SD4	142	SD425	Sad	1	1	1500	0	1 (stimme überhaupt nicht zu)	Ich genieße es, bei gewalttätigem Sport zuzuschauen.,1 (stimme überhaupt nicht zu),2,3,4,5 (stimme voll zu)	1.0	16:14:38	138.232.1.198
4	24HRG	SD4	143	SD426	Sad	1	1	865	0	1 (stimme überhaupt nicht zu)	Manche Menschen verdienen es zu leiden.,1 (stimme überhaupt nicht zu),2,3,4,5 (stimme voll zu)	1.0	16:14:40	138.232.1.198
4	24HRG	SD4	144	SD427	Sad	1	1	2931	0	1 (stimme überhaupt nicht zu)	Rein zum Vergnügen habe ich schonmal gemeine Dinge in sozialen Medien gesagt.,1 (stimme überhaupt nicht zu),2,3,4,5 (stimme voll zu)	1.0	16:14:41	138.232.1.198
4	24HRG	SD4	145	SD428	Sad	1	1	2425	0	1 (stimme überhaupt nicht zu)	Ich weiß, wie ich jemanden allein mit Worten verletzen kann.,1 (stimme überhaupt nicht zu),2,3,4,5 (stimme voll zu)	1.0	16:14:44	138.232.1.198
4	24HRG	Ukraine	146	weltgeschehen1	worldevents	-1	1	2549	0	Ja	Fühlen Sie sich von der aktuellen Situation in der Ukraine bedroht?,Ja,Nein,Möchte nicht antworten	2.0	16:14:49	138.232.1.198
4	24HRG	Ukraine	147	weltgeschehen2	worldevents	-1	0	2075	1	Nein	Sind Sie oder eine nahestehende Person betroffen?,Ja,Nein,Möchte nicht antworten	2.0	16:14:52	138.232.1.198
4	24HRG	Ukraine	148	weltgeschehen3	worldevents	-1	1	1307	0	Ja	Fühlen Sie sich vom Klimawandel bedroht?,Ja,Nein,Möchte nicht antworten	2.0	16:14:54	138.232.1.198
4	24HRG	Ukraine	149	weltgeschehen4	worldevents	-1	0	1667	1	Nein	Sind Sie oder eine nahestehende Person betroffen?,Ja,Nein,Möchte nicht antworten	2.0	16:14:56	138.232.1.198
4	24HRG	Ukraine	150	weltgeschehen5	worldevents	-1	0	1947	1	Nein	Fühlen Sie sich von der Corona-Pandemie bedroht?,Ja,Nein,Möchte nicht antworten	2.0	16:14:58	138.232.1.198
4	24HRG	Ukraine	151	weltgeschehen6	worldevents	-1	0	1420	1	Nein	Sind Sie oder eine nahestehende Person aktuell betroffen?,Ja,Nein,Möchte nicht antworten	2.0	16:15:0	138.232.1.198
8	21RNR	LOGON	0			0		0					9.6.2022 19:42 GMT+0200	83.175.70.75
9	06JMJ	LOGON	0			0		0					9.6.2022 19:43 GMT+0200	138.232.236.33
8	21RNR	SST_DarkPersonality_V1	2	JS6A11	JUPNS	0	NEG	1696	5	pos:3,neg:5	die,sind,beschäftigt,meisten,Versager,sowieso,block:1	1.0	19:43:56	83.175.70.75
8	21RNR	SST_DarkPersonality_V1	3	H9B17	HUPNS	0	NEG	2236	6	pos:4,neg:6	für,spenden,Waisen,wichtig,ist,nutzlos,block:1	1.0	19:43:58	83.175.70.75
8	21RNR	SST_DarkPersonality_V1	4	H4B07	HUPNS	0	POS	2833	2	pos:2,neg:1	geprügelt,getröstet,der,kleine,wird,Tim,block:1	1.0	19:44:1	83.175.70.75
8	21RNR	SST_DarkPersonality_V1	5	H10B19	HUPNS	0	ERROR	2074	5	pos:1,neg:3	böse,von,schlau,anderen,profitieren,ist,block:1	1.0	19:44:4	83.175.70.75
8	21RNR	SST_DarkPersonality_V1	6	JM4B08	JUPNO	0	POS	5807	2	pos:2,neg:1	individuell,universal,moralische,sind,meistens,Standards,block:1	1.0	19:44:6	83.175.70.75
8	21RNR	SST_DarkPersonality_V1	7	H2A02	HUPNS	0	POS	2688	1	pos:1,neg:6	lobenswert,findet,Hilfsorganisationen,Tim,heutzutage,sinnlos,block:1	1.0	19:44:13	83.175.70.75
8	21RNR	SST_DarkPersonality_V1	8	JC8A15	JUPNS	0	POS	3727	1	pos:1,neg:5	nett,anderen,helfen,zu,dumm,ist,block:1	1.0	19:44:16	83.175.70.75
8	21RNR	SST_DarkPersonality_V1	9	JC10B20	JUPNS	0	POS	3661	1	pos:1,neg:3	andere,Menschen,sich,meistens,achten,auf,block:1	1.0	19:44:20	83.175.70.75
8	21RNR	SST_DarkPersonality_V1	10	N30_V2_7PN	N	-1	NEU	3739	2	pos:2,neg:6	bin,draußen,immer,ich,fast,unterwegs	1.0	19:44:24	83.175.70.75
8	21RNR	SST_DarkPersonality_V1	11	H6B11	HUPNO	0	NEG	3854	3	pos:5,neg:3	im,Sport,spektakulär,Fouls,ungerecht,sind,block:1	1.0	19:44:28	83.175.70.75
8	21RNR	SST_DarkPersonality_V1	12	JT5A09	JUPNO	0	POS	2520	2	pos:2,neg:4	ist,unentbehrlich,Moral,überflüssig,in,Notzeiten,block:1	1.0	19:44:32	83.175.70.75
8	21RNR	SST_DarkPersonality_V1	13	H1A20	HUPNS	0	POS	4532	1	pos:1,neg:6	trösten,Tim,wird,Menschen,notleidende,ignorieren,block:1	1.0	19:44:35	83.175.70.75
8	21RNR	SST_DarkPersonality_V1	14	H7A12	HUPNS	0	POS	3294	2	pos:2,neg:6	absichtlich,gestreichelt,wird,Hund,der,getreten,block:1	1.0	19:44:39	83.175.70.75
8	21RNR	SST_DarkPersonality_V1	15	JM4A07	JUPNO	0	POS	3463	1	pos:1,neg:2	erforderlich,hinderlich,bestehende,sind,oft,Vorschriften,block:1	1.0	19:44:43	83.175.70.75
8	21RNR	SST_DarkPersonality_V1	16	JS3A05	JUPNS	0	POS	4361	5	pos:5,neg:6	andere,der,Stärkere,kann,aufheitern,schikanieren,block:1	1.0	19:44:47	83.175.70.75
8	21RNR	SST_DarkPersonality_V1	17	JS1B02	JUPNS	0	NEG	3587	1	pos:6,neg:1	ausbeuten,schwächere,kann,Menschen,man,ermutigen,block:1	1.0	19:44:51	83.175.70.75
8	21RNR	SST_DarkPersonality_V1	18	JS6B12	JUPNS	0	NEG	4542	3	pos:5,neg:3	einige,Gruppen,überlegen,anderen,ebenbürtig,sind,block:1	1.0	19:44:55	83.175.70.75
8	21RNR	SST_DarkPersonality_V1	19	H5A08	HUPNS	0	POS	2410	2	pos:2,neg:4	wurde,geküsst,Tim,geschlagen,bereits,mehrmals,block:1	1.0	19:45:0	83.175.70.75
8	21RNR	SST_DarkPersonality_V1	20	JT8B16	JUPNO	0	POS	3432	5	pos:5,neg:1	erfunden,Erzählungen,Ehrlichkeit,über,inspirierend,sind,block:1	1.0	19:45:3	83.175.70.75
8	21RNR	SST_DarkPersonality_V1	21	H3B05	HUPNS	0	NEG	3302	5	pos:6,neg:5	Freund,Tim,wird,seinen,ausnutzen,bestärken,block:1	1.0	19:45:7	83.175.70.75
8	21RNR	SST_DarkPersonality_V1	22	N4r_V2_3PN	N	1	NEU	1921	5	pos:5,neg:6	Kinder,im,die,spielen,Wasser,Sand	1.0	19:45:10	83.175.70.75
8	21RNR	SST_DarkPersonality_V1	23	N10_V2_8PN	N	-1	NEU	3017	5	pos:1,neg:5	Frühling ,im,Geburtstag,mein,Sommer,ist	1.0	19:45:13	83.175.70.75
8	21RNR	SST_DarkPersonality_V1	24	H9A16	HUPNS	0	ERROR	4585	3	pos:6,neg:4	im,sieht,Fernsehen,Boxkämpfe,Tim,Tennis,block:1	1.0	19:45:16	83.175.70.75
8	21RNR	SST_DarkPersonality_V1	25	H2A22	HUPNS	0	NEG	4402	6	pos:1,neg:6	lachen,andere,Menschen,sollen,oft,leiden,block:1	1.0	19:45:21	83.175.70.75
8	21RNR	SST_DarkPersonality_V1	26	H5B09	HUPNS	0	POS	3422	4	pos:4,neg:2	anvertraute,einsetzen,Geheimnisse,behüten,kann,man,block:1	1.0	19:45:25	83.175.70.75
8	21RNR	SST_DarkPersonality_V1	27	H2B03	HUPNS	0	POS	2215	6	pos:6,neg:1	herablassend,Tim,behandelt,andere,immer,freundlich,block:1	1.0	19:45:29	83.175.70.75
8	21RNR	SST_DarkPersonality_V1	28	JC2B04	JUPNO	0	POS	4035	6	pos:6,neg:1	gesichert,wird,Macht,am,besten,aufgeteilt,block:1	1.0	19:45:32	83.175.70.75
8	21RNR	SST_DarkPersonality_V1	29	H1B21	HUPNS	0	POS	2664	6	pos:6,neg:1	verletzen,Tim,möchte,Menschen,andere,unterstützen,block:1	1.0	19:45:36	83.175.70.75
8	21RNR	SST_DarkPersonality_V1	30	H1B01	HUPNS	0	ERROR	2284	4	pos:6,neg:1	idiotisch,Dinge,zu,teilen,ist,schön,block:1	1.0	19:45:39	83.175.70.75
8	21RNR	SST_DarkPersonality_V1	31	H3A04	HUPNO	0	POS	4483	5	pos:5,neg:6	Raub,als,Einkommensquelle,ist,ungerecht,klug,block:1	1.0	19:45:42	83.175.70.75
8	21RNR	SST_DarkPersonality_V1	32	H2B23	HUPNO	0	POS	3200	6	pos:6,neg:1	hilfreich,Anerkennung,Unverdientes,für,ist,falsch,block:1	1.0	19:45:46	83.175.70.75
8	21RNR	SST_DarkPersonality_V1	33	H4A06	HUPNS	0	ERROR	2603	6	pos:1,neg:2	armselig,spannend,andere,zu,ist,ärgern,block:1	1.0	19:45:50	83.175.70.75
8	21RNR	SST_DarkPersonality_V1	34	H8A14	HUPNS	0	NEG	5456	5	pos:1,neg:5	ekelhaft,über,Scherze,andere,spaßig,sind,block:1	1.0	19:45:53	83.175.70.75
8	21RNR	SST_DarkPersonality_V1	35	JN2A03	JUPNS	0	NEG	4845	6	pos:1,neg:6	nutzen,Anführer,Macht,sollen,ihre,auskosten,block:1	1.0	19:45:59	83.175.70.75
8	21RNR	SST_DarkPersonality_V1	36	H8B15	HUPNS	0	ERROR	3507	3	pos:5,neg:1	lustig,andere,verspotten,zu,unzulänglich,ist,block:1	1.0	19:46:4	83.175.70.75
8	21RNR	SST_DarkPersonality_V1	37	JM3B06	JUPNS	0	NEG	4868	5	pos:6,neg:5	schädigen,andere,zu,ist,unvermeidlich,verboten,block:1	1.0	19:46:8	83.175.70.75
8	21RNR	SST_DarkPersonality_V1	38	JC1A01	JUPNS	0	POS	3636	1	pos:1,neg:6	verstehen,man,kann,Menschen,leicht,manipulieren,block:1	1.0	19:46:13	83.175.70.75
8	21RNR	SST_DarkPersonality_V1	39	JC1A21	JUPNS	0	NEG	3737	6	pos:1,neg:6	großzügig,an,Hilfsorganisationen,spenden,ist,blauäugig,block:1	1.0	19:46:17	83.175.70.75
8	21RNR	SST_DarkPersonality_V1	40	H10A18	HUPNS	0	POS	3160	3	pos:3,neg:1	aufregend,andere,beunruhigend,zu,verletzen,ist,block:1	1.0	19:46:21	83.175.70.75
8	21RNR	SST_DarkPersonality_V1	41	JS9B18	JUPNS	0	POS	2569	4	pos:4,neg:6	Menschen,schwache,sind,gemein,weniger,wert,block:1	1.0	19:46:24	83.175.70.75
8	21RNR	SST_DarkPersonality_V1	42	H6A10	HUPNS	0	NEG	5556	5	pos:3,neg:5	der,kleine,gelobt,Tim,verhauen,wird,block:1	1.0	19:46:27	83.175.70.75
8	21RNR	SST_DarkPersonality_V1	43	H7B13	HUPNS	0	POS	2858	6	pos:6,neg:2	langsam,gequält,wird,Tier,das,gefüttert,block:1	1.0	19:46:33	83.175.70.75
8	21RNR	SST_DarkPersonality_V1	44	N1r_V2_2PN	N	-1	NEU	2115	6	pos:1,neg:6	gehört,habe,ich,es,mehrmals,gesehen	1.0	19:46:36	83.175.70.75
8	21RNR	SST_DarkPersonality_V1	45	JS5B10	JUPNS	0	POS	3491	4	pos:4,neg:2	die,Verachtung,Menschen,Respekt,meisten,verdienen,block:1	1.0	19:46:39	83.175.70.75
8	21RNR	SST_DarkPersonality_V1	46	N6_V2_4PN	N	-1	NEU	2580	2	pos:1,neg:2	Motorrad ,Fahrrad,fahre,dem,mit,ich	1.0	19:46:42	83.175.70.75
8	21RNR	SST_DarkPersonality_V1	47	JC10A19	JUPNS	0	POS	2997	3	pos:3,neg:1	blödsinnig,für,bewundernswert,Charities,spenden,ist,block:1	1.0	19:46:45	83.175.70.75
8	21RNR	SST_DarkPersonality_V1	48	JM7A13	JUPNO	0	NEG	2980	6	pos:2,neg:6	Entscheidungen,kulturell,über,Moral,sind,persönlich,block:1	1.0	19:46:49	83.175.70.75
8	21RNR	SST_DarkPersonality_V1	49	JA7B14	JUPNS	0	POS	2534	6	pos:6,neg:2	anderen,einfältig,zu,folgen,ist,intelligent,block:1	1.0	19:46:52	83.175.70.75
8	21RNR	SST_DarkPersonality_V1	50	JT9A17	JUPNO	0	POS	3867	6	pos:6,neg:4	ethische,Grenzen,sind,Erfindung,eine,Notwendigkeit,block:1	1.0	19:46:55	83.175.70.75
8	21RNR	SSTWW	51	SSTWW1	SSTWW	-1	1	3753	0	Ja	Haben Sie den vorausgegangenen Test bereits in einer Studie in der Vergangenheit bearbeitet?,Ja,Nein,Weiß ich nicht mehr	1.0	19:47:3	83.175.70.75
8	21RNR	LPFSBF	52	LPFSBF01	self	1	3	4249	2	trifft eher zu	Ich weiß oft nicht wer ich wirklich bin.,trifft überhaupt nicht zu,trifft eher nicht zu,trifft eher zu,trifft genau zu	1.0	19:47:9	83.175.70.75
8	21RNR	LPFSBF	53	LPFSBF02	self	1	2	9235	1	trifft eher nicht zu	Ich denke oft sehr schlecht über mich selbst.,trifft überhaupt nicht zu,trifft eher nicht zu,trifft eher zu,trifft genau zu	1.0	19:47:14	83.175.70.75
8	21RNR	LPFSBF	54	LPFSBF03	self	1	3	8400	2	trifft eher zu	Meine Gefühle ändern sich, ohne dass ich sie im Griff habe.,trifft überhaupt nicht zu,trifft eher nicht zu,trifft eher zu,trifft genau zu	1.0	19:47:23	83.175.70.75
8	21RNR	LPFSBF	55	LPFSBF04	self	1	2	2247	1	trifft eher nicht zu	Ich habe keine Ahnung, wo ich im Leben hin will.,trifft überhaupt nicht zu,trifft eher nicht zu,trifft eher zu,trifft genau zu	1.0	19:47:32	83.175.70.75
8	21RNR	LPFSBF	56	LPFSBF05	self	1	2	5273	1	trifft eher nicht zu	Ich verstehe oft meine eigenen Gedanken und Gefühle nicht.,trifft überhaupt nicht zu,trifft eher nicht zu,trifft eher zu,trifft genau zu	1.0	19:47:35	83.175.70.75
8	21RNR	LPFSBF	57	LPFSBF06	self	1	3	2233	2	trifft eher zu	Ich stelle oft unrealistische Anforderungen an mich selbst.,trifft überhaupt nicht zu,trifft eher nicht zu,trifft eher zu,trifft genau zu	1.0	19:47:40	83.175.70.75
8	21RNR	LPFSBF	58	LPFSBF07	interpersonal	1	2	5990	1	trifft eher nicht zu	Ich habe oft Schwierigkeiten, die Gedanken und Gefühle anderer zu verstehen.,trifft überhaupt nicht zu,trifft eher nicht zu,trifft eher zu,trifft genau zu	1.0	19:47:43	83.175.70.75
8	21RNR	LPFSBF	59	LPFSBF08	interpersonal	1	2	2989	1	trifft eher nicht zu	Ich kann es oft schwer aushalten, wenn andere eine andere Meinung haben.,trifft überhaupt nicht zu,trifft eher nicht zu,trifft eher zu,trifft genau zu	1.0	19:47:49	83.175.70.75
8	21RNR	LPFSBF	60	LPFSBF09	interpersonal	1	2	3033	1	trifft eher nicht zu	Ich verstehe oft nicht ganz warum mein Verhalten einen bestimmten Einfluss auf andere hat.,trifft überhaupt nicht zu,trifft eher nicht zu,trifft eher zu,trifft genau zu	1.0	19:47:52	83.175.70.75
8	21RNR	LPFSBF	61	LPFSBF10	interpersonal	1	2	1834	1	trifft eher nicht zu	Meine Beziehungen und Freundschaften halten nie lange.,trifft überhaupt nicht zu,trifft eher nicht zu,trifft eher zu,trifft genau zu	1.0	19:47:56	83.175.70.75
8	21RNR	LPFSBF	62	LPFSBF11	interpersonal	1	2	2381	1	trifft eher nicht zu	Ich fühle mich oft sehr verletzlich, wenn Beziehungen persönlicher werden.,trifft überhaupt nicht zu,trifft eher nicht zu,trifft eher zu,trifft genau zu	1.0	19:47:58	83.175.70.75
8	21RNR	LPFSBF	63	LPFSBF12	interpersonal	1	3	9666	2	trifft eher zu	Es gelingt mir häufig nicht, mit anderen auf eine Weise zusammen zu arbeiten, die für beide Seiten zufriedenstellend ist.,trifft überhaupt nicht zu,trifft eher nicht zu,trifft eher zu,trifft genau zu	1.0	19:48:0	83.175.70.75
9	06JMJ	SST_DarkPersonality_V1	2	H1B21	HUPNS	0	POS	4176	6	pos:6,neg:1	verletzen,Tim,möchte,Menschen,andere,unterstützen,block:1	1.0	19:44:25	138.232.236.33
9	06JMJ	SST_DarkPersonality_V1	3	JC10A19	JUPNS	0	ERROR	4745	5	pos:3,neg:1	blödsinnig,für,bewundernswert,Charities,spenden,ist,block:1	1.0	19:44:29	138.232.236.33
9	06JMJ	SST_DarkPersonality_V1	4	N10_V2_8PN	N	-1	NEU	4735	1	pos:1,neg:5	Frühling ,im,Geburtstag,mein,Sommer,ist	1.0	19:44:34	138.232.236.33
9	06JMJ	SST_DarkPersonality_V1	5	JT5A09	JUPNO	0	NEG	5474	4	pos:2,neg:4	ist,unentbehrlich,Moral,überflüssig,in,Notzeiten,block:1	1.0	19:44:39	138.232.236.33
9	06JMJ	SST_DarkPersonality_V1	6	JM7A13	JUPNO	0	NEG	4989	6	pos:2,neg:6	Entscheidungen,kulturell,über,Moral,sind,persönlich,block:1	1.0	19:44:45	138.232.236.33
9	06JMJ	SST_DarkPersonality_V1	7	H9B17	HUPNS	0	POS	3417	4	pos:4,neg:6	für,spenden,Waisen,wichtig,ist,nutzlos,block:1	1.0	19:44:50	138.232.236.33
9	06JMJ	SST_DarkPersonality_V1	8	H5A08	HUPNS	0	NEG	5520	4	pos:2,neg:4	wurde,geküsst,Tim,geschlagen,bereits,mehrmals,block:1	1.0	19:44:54	138.232.236.33
9	06JMJ	SST_DarkPersonality_V1	9	JS6A11	JUPNS	0	POS	5941	3	pos:3,neg:5	die,sind,beschäftigt,meisten,Versager,sowieso,block:1	1.0	19:45:0	138.232.236.33
9	06JMJ	SST_DarkPersonality_V1	10	JC2B04	JUPNO	0	POS	4073	6	pos:6,neg:1	gesichert,wird,Macht,am,besten,aufgeteilt,block:1	1.0	19:45:6	138.232.236.33
9	06JMJ	SST_DarkPersonality_V1	11	JC10B20	JUPNS	0	MISS	0	0	pos:1,neg:3	andere,Menschen,sich,meistens,achten,auf,block:1	1.0	19:45:11	138.232.236.33
9	06JMJ	SST_DarkPersonality_V1	12	JM4B08	JUPNO	0	POS	2591	2	pos:2,neg:1	individuell,universal,moralische,sind,meistens,Standards,block:1	1.0	19:45:19	138.232.236.33
9	06JMJ	SST_DarkPersonality_V1	13	H4A06	HUPNS	0	NEG	4214	2	pos:1,neg:2	armselig,spannend,andere,zu,ist,ärgern,block:1	1.0	19:45:22	138.232.236.33
9	06JMJ	SST_DarkPersonality_V1	14	H7B13	HUPNS	0	POS	4342	6	pos:6,neg:2	langsam,gequält,wird,Tier,das,gefüttert,block:1	1.0	19:45:26	138.232.236.33
9	06JMJ	SST_DarkPersonality_V1	15	JA7B14	JUPNS	0	POS	3404	6	pos:6,neg:2	anderen,einfältig,zu,folgen,ist,intelligent,block:1	1.0	19:45:31	138.232.236.33
9	06JMJ	SST_DarkPersonality_V1	16	JC1A21	JUPNS	0	ERROR	2847	4	pos:1,neg:6	großzügig,an,Hilfsorganisationen,spenden,ist,blauäugig,block:1	1.0	19:45:34	138.232.236.33
9	06JMJ	SST_DarkPersonality_V1	17	JS5B10	JUPNS	0	POS	4119	4	pos:4,neg:2	die,Verachtung,Menschen,Respekt,meisten,verdienen,block:1	1.0	19:45:38	138.232.236.33
9	06JMJ	SST_DarkPersonality_V1	18	H1B01	HUPNS	0	POS	3309	6	pos:6,neg:1	idiotisch,Dinge,zu,teilen,ist,schön,block:1	1.0	19:45:42	138.232.236.33
9	06JMJ	SST_DarkPersonality_V1	19	JS1B02	JUPNS	0	POS	3610	6	pos:6,neg:1	ausbeuten,schwächere,kann,Menschen,man,ermutigen,block:1	1.0	19:45:46	138.232.236.33
9	06JMJ	SST_DarkPersonality_V1	20	JM4A07	JUPNO	0	POS	3102	1	pos:1,neg:2	erforderlich,hinderlich,bestehende,sind,oft,Vorschriften,block:1	1.0	19:45:50	138.232.236.33
9	06JMJ	SST_DarkPersonality_V1	21	JS9B18	JUPNS	0	NEG	4621	6	pos:4,neg:6	Menschen,schwache,sind,gemein,weniger,wert,block:1	1.0	19:45:53	138.232.236.33
9	06JMJ	SST_DarkPersonality_V1	22	H8A14	HUPNS	0	NEG	2526	5	pos:1,neg:5	ekelhaft,über,Scherze,andere,spaßig,sind,block:1	1.0	19:45:58	138.232.236.33
9	06JMJ	SST_DarkPersonality_V1	23	H10B19	HUPNS	0	NEG	3519	3	pos:1,neg:3	böse,von,schlau,anderen,profitieren,ist,block:1	1.0	19:46:1	138.232.236.33
9	06JMJ	SST_DarkPersonality_V1	24	H2A02	HUPNS	0	POS	2976	1	pos:1,neg:6	lobenswert,findet,Hilfsorganisationen,Tim,heutzutage,sinnlos,block:1	1.0	19:46:5	138.232.236.33
9	06JMJ	SST_DarkPersonality_V1	25	H4B07	HUPNS	0	NEG	3810	1	pos:2,neg:1	geprügelt,getröstet,der,kleine,wird,Tim,block:1	1.0	19:46:8	138.232.236.33
9	06JMJ	SST_DarkPersonality_V1	26	H2B23	HUPNO	0	NEG	4224	1	pos:6,neg:1	hilfreich,Anerkennung,Unverdientes,für,ist,falsch,block:1	1.0	19:46:12	138.232.236.33
9	06JMJ	SST_DarkPersonality_V1	27	N6_V2_4PN	N	-1	NEU	3448	2	pos:1,neg:2	Motorrad ,Fahrrad,fahre,dem,mit,ich	1.0	19:46:17	138.232.236.33
9	06JMJ	SST_DarkPersonality_V1	28	JM3B06	JUPNS	0	NEG	5528	5	pos:6,neg:5	schädigen,andere,zu,ist,unvermeidlich,verboten,block:1	1.0	19:46:20	138.232.236.33
9	06JMJ	SST_DarkPersonality_V1	29	JS3A05	JUPNS	0	POS	4315	5	pos:5,neg:6	andere,der,Stärkere,kann,aufheitern,schikanieren,block:1	1.0	19:46:26	138.232.236.33
9	06JMJ	SST_DarkPersonality_V1	30	N1r_V2_2PN	N	-1	NEU	4553	6	pos:1,neg:6	gehört,habe,ich,es,mehrmals,gesehen	1.0	19:46:31	138.232.236.33
9	06JMJ	SST_DarkPersonality_V1	31	JC8A15	JUPNS	0	POS	5881	1	pos:1,neg:5	nett,anderen,helfen,zu,dumm,ist,block:1	1.0	19:46:36	138.232.236.33
9	06JMJ	SST_DarkPersonality_V1	32	H9A16	HUPNS	0	POS	3813	6	pos:6,neg:4	im,sieht,Fernsehen,Boxkämpfe,Tim,Tennis,block:1	1.0	19:46:42	138.232.236.33
9	06JMJ	SST_DarkPersonality_V1	33	H8B15	HUPNS	0	POS	4740	5	pos:5,neg:1	lustig,andere,verspotten,zu,unzulänglich,ist,block:1	1.0	19:46:46	138.232.236.33
9	06JMJ	SST_DarkPersonality_V1	34	JT9A17	JUPNO	0	ERROR	3908	1	pos:6,neg:4	ethische,Grenzen,sind,Erfindung,eine,Notwendigkeit,block:1	1.0	19:46:51	138.232.236.33
9	06JMJ	SST_DarkPersonality_V1	35	H2B03	HUPNS	0	POS	2226	6	pos:6,neg:1	herablassend,Tim,behandelt,andere,immer,freundlich,block:1	1.0	19:46:55	138.232.236.33
9	06JMJ	SST_DarkPersonality_V1	36	H10A18	HUPNS	0	POS	2408	3	pos:3,neg:1	aufregend,andere,beunruhigend,zu,verletzen,ist,block:1	1.0	19:46:58	138.232.236.33
9	06JMJ	SST_DarkPersonality_V1	37	H6B11	HUPNO	0	POS	3498	5	pos:5,neg:3	im,Sport,spektakulär,Fouls,ungerecht,sind,block:1	1.0	19:47:0	138.232.236.33
9	06JMJ	SST_DarkPersonality_V1	38	JN2A03	JUPNS	0	NEG	7137	6	pos:1,neg:6	nutzen,Anführer,Macht,sollen,ihre,auskosten,block:1	1.0	19:47:4	138.232.236.33
9	06JMJ	SST_DarkPersonality_V1	39	JT8B16	JUPNO	0	POS	2796	5	pos:5,neg:1	erfunden,Erzählungen,Ehrlichkeit,über,inspirierend,sind,block:1	1.0	19:47:12	138.232.236.33
9	06JMJ	SST_DarkPersonality_V1	40	JS6B12	JUPNS	0	ERROR	7036	2	pos:5,neg:3	einige,Gruppen,überlegen,anderen,ebenbürtig,sind,block:1	1.0	19:47:15	138.232.236.33
9	06JMJ	SST_DarkPersonality_V1	41	H5B09	HUPNS	0	ERROR	4800	1	pos:4,neg:2	anvertraute,einsetzen,Geheimnisse,behüten,kann,man,block:1	1.0	19:47:22	138.232.236.33
9	06JMJ	SST_DarkPersonality_V1	42	H1A20	HUPNS	0	POS	4936	1	pos:1,neg:6	trösten,Tim,wird,Menschen,notleidende,ignorieren,block:1	1.0	19:47:27	138.232.236.33
9	06JMJ	SST_DarkPersonality_V1	43	N30_V2_7PN	N	-1	NEU	5618	2	pos:2,neg:6	bin,draußen,immer,ich,fast,unterwegs	1.0	19:47:32	138.232.236.33
9	06JMJ	SST_DarkPersonality_V1	44	H3A04	HUPNO	0	POS	6675	5	pos:5,neg:6	Raub,als,Einkommensquelle,ist,ungerecht,klug,block:1	1.0	19:47:38	138.232.236.33
9	06JMJ	SST_DarkPersonality_V1	45	N4r_V2_3PN	N	1	NEU	6810	5	pos:5,neg:6	Kinder,im,die,spielen,Wasser,Sand	1.0	19:47:45	138.232.236.33
9	06JMJ	SST_DarkPersonality_V1	46	H7A12	HUPNS	0	POS	6221	2	pos:2,neg:6	absichtlich,gestreichelt,wird,Hund,der,getreten,block:1	1.0	19:47:52	138.232.236.33
9	06JMJ	SST_DarkPersonality_V1	47	JC1A01	JUPNS	0	POS	3577	1	pos:1,neg:6	verstehen,man,kann,Menschen,leicht,manipulieren,block:1	1.0	19:47:59	138.232.236.33
9	06JMJ	SST_DarkPersonality_V1	48	H2A22	HUPNS	0	NEG	6573	6	pos:1,neg:6	lachen,andere,Menschen,sollen,oft,leiden,block:1	1.0	19:48:3	138.232.236.33
9	06JMJ	SST_DarkPersonality_V1	49	H6A10	HUPNS	0	POS	6075	3	pos:3,neg:5	der,kleine,gelobt,Tim,verhauen,wird,block:1	1.0	19:48:10	138.232.236.33
9	06JMJ	SST_DarkPersonality_V1	50	H3B05	HUPNS	0	POS	6473	6	pos:6,neg:5	Freund,Tim,wird,seinen,ausnutzen,bestärken,block:1	1.0	19:48:16	138.232.236.33
9	06JMJ	SSTWW	51	SSTWW1	SSTWW	-1	1	2142	0	Ja	Haben Sie den vorausgegangenen Test bereits in einer Studie in der Vergangenheit bearbeitet?,Ja,Nein,Weiß ich nicht mehr	1.0	19:48:24	138.232.236.33
9	06JMJ	LPFSBF	52	LPFSBF01	self	1	3	2663	2	trifft eher zu	Ich weiß oft nicht wer ich wirklich bin.,trifft überhaupt nicht zu,trifft eher nicht zu,trifft eher zu,trifft genau zu	1.0	19:48:28	138.232.236.33
9	06JMJ	LPFSBF	53	LPFSBF02	self	1	4	1587	3	trifft genau zu	Ich denke oft sehr schlecht über mich selbst.,trifft überhaupt nicht zu,trifft eher nicht zu,trifft eher zu,trifft genau zu	1.0	19:48:31	138.232.236.33
9	06JMJ	LPFSBF	54	LPFSBF03	self	1	3	1551	2	trifft eher zu	Meine Gefühle ändern sich, ohne dass ich sie im Griff habe.,trifft überhaupt nicht zu,trifft eher nicht zu,trifft eher zu,trifft genau zu	1.0	19:48:33	138.232.236.33
9	06JMJ	LPFSBF	55	LPFSBF04	self	1	3	1712	2	trifft eher zu	Ich habe keine Ahnung, wo ich im Leben hin will.,trifft überhaupt nicht zu,trifft eher nicht zu,trifft eher zu,trifft genau zu	1.0	19:48:35	138.232.236.33
9	06JMJ	LPFSBF	56	LPFSBF05	self	1	3	3582	2	trifft eher zu	Ich verstehe oft meine eigenen Gedanken und Gefühle nicht.,trifft überhaupt nicht zu,trifft eher nicht zu,trifft eher zu,trifft genau zu	1.0	19:48:37	138.232.236.33
9	06JMJ	LPFSBF	57	LPFSBF06	self	1	4	1223	3	trifft genau zu	Ich stelle oft unrealistische Anforderungen an mich selbst.,trifft überhaupt nicht zu,trifft eher nicht zu,trifft eher zu,trifft genau zu	1.0	19:48:41	138.232.236.33
9	06JMJ	LPFSBF	58	LPFSBF07	interpersonal	1	3	2106	2	trifft eher zu	Ich habe oft Schwierigkeiten, die Gedanken und Gefühle anderer zu verstehen.,trifft überhaupt nicht zu,trifft eher nicht zu,trifft eher zu,trifft genau zu	1.0	19:48:42	138.232.236.33
9	06JMJ	LPFSBF	59	LPFSBF08	interpersonal	1	2	2244	1	trifft eher nicht zu	Ich kann es oft schwer aushalten, wenn andere eine andere Meinung haben.,trifft überhaupt nicht zu,trifft eher nicht zu,trifft eher zu,trifft genau zu	1.0	19:48:45	138.232.236.33
9	06JMJ	LPFSBF	60	LPFSBF09	interpersonal	1	3	2411	2	trifft eher zu	Ich verstehe oft nicht ganz warum mein Verhalten einen bestimmten Einfluss auf andere hat.,trifft überhaupt nicht zu,trifft eher nicht zu,trifft eher zu,trifft genau zu	1.0	19:48:47	138.232.236.33
9	06JMJ	LPFSBF	61	LPFSBF10	interpersonal	1	2	1688	1	trifft eher nicht zu	Meine Beziehungen und Freundschaften halten nie lange.,trifft überhaupt nicht zu,trifft eher nicht zu,trifft eher zu,trifft genau zu	1.0	19:48:50	138.232.236.33
9	06JMJ	LPFSBF	62	LPFSBF11	interpersonal	1	3	1417	2	trifft eher zu	Ich fühle mich oft sehr verletzlich, wenn Beziehungen persönlicher werden.,trifft überhaupt nicht zu,trifft eher nicht zu,trifft eher zu,trifft genau zu	1.0	19:48:52	138.232.236.33
9	06JMJ	LPFSBF	63	LPFSBF12	interpersonal	1	3	2026	2	trifft eher zu	Es gelingt mir häufig nicht, mit anderen auf eine Weise zusammen zu arbeiten, die für beide Seiten zufriedenstellend ist.,trifft überhaupt nicht zu,trifft eher nicht zu,trifft eher zu,trifft genau zu	1.0	19:48:54	138.232.236.33
8	21RNR	ADS	64	ADS01	ADS	1	2	9793	2	öfters	Während der letzten Wochen...<br><br>...haben mich Dinge beunruhigt die mir sonst nichts ausmachen.,selten,manchmal,öfters,meistens	1.0	19:48:14	83.175.70.75
8	21RNR	ADS	65	ADS02	ADS	1	0	3073	0	selten	Während der letzten Wochen...<br><br>...hatte ich kaum Appetit.,selten,manchmal,öfters,meistens	1.0	19:48:24	83.175.70.75
8	21RNR	ADS	66	ADS03	ADS	1	1	4436	1	manchmal	Während der letzten Wochen...<br><br>...konnte ich meine trübsinnige Laune nicht loswerden, obwohl meine Freunde oder Familie versuchten, mich aufzumuntern.,selten,manchmal,öfters,meistens	1.0	19:48:27	83.175.70.75
8	21RNR	ADS	67	ADS04	ADS	-1	3	7770	0	selten	Während der letzten Wochen...<br><br>...kam ich mir genauso gut vor wie andere.,selten,manchmal,öfters,meistens	1.0	19:48:32	83.175.70.75
8	21RNR	ADS	68	ADS05	ADS	1	1	2302	1	manchmal	Während der letzten Wochen...<br><br>...hatte ich Mühe, mich zu konzentrieren.,selten,manchmal,öfters,meistens	1.0	19:48:40	83.175.70.75
8	21RNR	ADS	69	ADS06	ADS	1	2	2177	2	öfters	Während der letzten Wochen...<br><br>...war ich deprimiert / niedergeschlagen.,selten,manchmal,öfters,meistens	1.0	19:48:43	83.175.70.75
8	21RNR	ADS	70	ADS07	ADS	1	1	3594	1	manchmal	Während der letzten Wochen...<br><br>...war alles anstrengend für mich.,selten,manchmal,öfters,meistens	1.0	19:48:45	83.175.70.75
8	21RNR	ADS	71	ADS08	ADS	-1	2	3159	1	manchmal	Während der letzten Wochen...<br><br>...dachte ich voller Hoffnung an die Zukunft.,selten,manchmal,öfters,meistens	1.0	19:48:49	83.175.70.75
8	21RNR	ADS	72	ADS09	ADS	1	0	2225	0	selten	Während der letzten Wochen...<br><br>...dachte ich, mein Leben ist ein einziger Fehlschlag.,selten,manchmal,öfters,meistens	1.0	19:48:53	83.175.70.75
8	21RNR	ADS	73	ADS10	ADS	1	1	2595	1	manchmal	Während der letzten Wochen...<br><br>...hatte ich Angst.,selten,manchmal,öfters,meistens	1.0	19:48:55	83.175.70.75
8	21RNR	ADS	74	ADS11	ADS	1	2	1995	2	öfters	Während der letzten Wochen...<br><br>...habe ich schlecht geschlafen.,selten,manchmal,öfters,meistens	1.0	19:48:58	83.175.70.75
8	21RNR	ADS	75	ADS12	ADS	-1	1	2518	2	öfters	Während der letzten Wochen...<br><br>...war ich fröhlich gestimmt.,selten,manchmal,öfters,meistens	1.0	19:49:0	83.175.70.75
8	21RNR	ADS	76	ADS13	ADS	1	1	3737	1	manchmal	Während der letzten Wochen...<br><br>...habe ich weniger als sonst geredet.,selten,manchmal,öfters,meistens	1.0	19:49:3	83.175.70.75
8	21RNR	ADS	77	ADS14	ADS	1	2	1891	2	öfters	Während der letzten Wochen...<br><br>...fühlte ich mich einsam.,selten,manchmal,öfters,meistens	1.0	19:49:7	83.175.70.75
8	21RNR	ADS	78	ADS15	ADS	1	1	3055	1	manchmal	Während der letzten Wochen...<br><br>...waren die Leute unfreundlich zu mir.,selten,manchmal,öfters,meistens	1.0	19:49:9	83.175.70.75
8	21RNR	ADS	79	ADS16	ADS	-1	2	2419	1	manchmal	Während der letzten Wochen...<br><br>...habe ich das Leben genossen.,selten,manchmal,öfters,meistens	1.0	19:49:13	83.175.70.75
8	21RNR	ADS	80	ADS17	ADS	1	1	3052	1	manchmal	Während der letzten Wochen...<br><br>...musste ich weinen.,selten,manchmal,öfters,meistens	1.0	19:49:15	83.175.70.75
8	21RNR	ADS	81	ADS18	ADS	1	2	1982	2	öfters	Während der letzten Wochen...<br><br>...war ich traurig.,selten,manchmal,öfters,meistens	1.0	19:49:19	83.175.70.75
8	21RNR	ADS	82	ADS19	ADS	1	2	4272	2	öfters	Während der letzten Wochen...<br><br>...hatte ich das Gefühl, dass mich die Leute nicht leiden können.,selten,manchmal,öfters,meistens	1.0	19:49:21	83.175.70.75
8	21RNR	ADS	83	ADS20	ADS	1	1	3911	1	manchmal	Während der letzten Wochen...<br><br>...konnte ich mich zu nichts aufraffen.,selten,manchmal,öfters,meistens	1.0	19:49:26	83.175.70.75
9	06JMJ	ADS	64	ADS01	ADS	1	2	3259	2	öfters	Während der letzten Wochen...<br><br>...haben mich Dinge beunruhigt die mir sonst nichts ausmachen.,selten,manchmal,öfters,meistens	1.0	19:50:19	138.232.236.33
9	06JMJ	ADS	65	ADS02	ADS	1	1	1800	1	manchmal	Während der letzten Wochen...<br><br>...hatte ich kaum Appetit.,selten,manchmal,öfters,meistens	1.0	19:50:23	138.232.236.33
9	06JMJ	ADS	66	ADS03	ADS	1	3	3398	3	meistens	Während der letzten Wochen...<br><br>...konnte ich meine trübsinnige Laune nicht loswerden, obwohl meine Freunde oder Familie versuchten, mich aufzumuntern.,selten,manchmal,öfters,meistens	1.0	19:50:25	138.232.236.33
9	06JMJ	ADS	67	ADS04	ADS	-1	2	1619	1	manchmal	Während der letzten Wochen...<br><br>...kam ich mir genauso gut vor wie andere.,selten,manchmal,öfters,meistens	1.0	19:50:29	138.232.236.33
9	06JMJ	ADS	68	ADS05	ADS	1	3	1406	3	meistens	Während der letzten Wochen...<br><br>...hatte ich Mühe, mich zu konzentrieren.,selten,manchmal,öfters,meistens	1.0	19:50:31	138.232.236.33
9	06JMJ	ADS	69	ADS06	ADS	1	2	2590	2	öfters	Während der letzten Wochen...<br><br>...war ich deprimiert / niedergeschlagen.,selten,manchmal,öfters,meistens	1.0	19:50:32	138.232.236.33
9	06JMJ	ADS	70	ADS07	ADS	1	2	1758	2	öfters	Während der letzten Wochen...<br><br>...war alles anstrengend für mich.,selten,manchmal,öfters,meistens	1.0	19:50:35	138.232.236.33
9	06JMJ	ADS	71	ADS08	ADS	-1	1	2049	2	öfters	Während der letzten Wochen...<br><br>...dachte ich voller Hoffnung an die Zukunft.,selten,manchmal,öfters,meistens	1.0	19:50:37	138.232.236.33
9	06JMJ	ADS	72	ADS09	ADS	1	0	2110	0	selten	Während der letzten Wochen...<br><br>...dachte ich, mein Leben ist ein einziger Fehlschlag.,selten,manchmal,öfters,meistens	1.0	19:50:40	138.232.236.33
9	06JMJ	ADS	73	ADS10	ADS	1	2	3017	2	öfters	Während der letzten Wochen...<br><br>...hatte ich Angst.,selten,manchmal,öfters,meistens	1.0	19:50:42	138.232.236.33
9	06JMJ	ADS	74	ADS11	ADS	1	3	2048	3	meistens	Während der letzten Wochen...<br><br>...habe ich schlecht geschlafen.,selten,manchmal,öfters,meistens	1.0	19:50:45	138.232.236.33
9	06JMJ	ADS	75	ADS12	ADS	-1	1	1576	2	öfters	Während der letzten Wochen...<br><br>...war ich fröhlich gestimmt.,selten,manchmal,öfters,meistens	1.0	19:50:48	138.232.236.33
9	06JMJ	ADS	76	ADS13	ADS	1	0	3278	0	selten	Während der letzten Wochen...<br><br>...habe ich weniger als sonst geredet.,selten,manchmal,öfters,meistens	1.0	19:50:50	138.232.236.33
9	06JMJ	ADS	77	ADS14	ADS	1	0	1668	0	selten	Während der letzten Wochen...<br><br>...fühlte ich mich einsam.,selten,manchmal,öfters,meistens	1.0	19:50:53	138.232.236.33
9	06JMJ	ADS	78	ADS15	ADS	1	0	1471	0	selten	Während der letzten Wochen...<br><br>...waren die Leute unfreundlich zu mir.,selten,manchmal,öfters,meistens	1.0	19:50:55	138.232.236.33
9	06JMJ	ADS	79	ADS16	ADS	-1	2	2158	1	manchmal	Während der letzten Wochen...<br><br>...habe ich das Leben genossen.,selten,manchmal,öfters,meistens	1.0	19:50:57	138.232.236.33
9	06JMJ	ADS	80	ADS17	ADS	1	0	9179	0	selten	Während der letzten Wochen...<br><br>...musste ich weinen.,selten,manchmal,öfters,meistens	1.0	19:50:59	138.232.236.33
9	06JMJ	ADS	81	ADS18	ADS	1	1	1504	1	manchmal	Während der letzten Wochen...<br><br>...war ich traurig.,selten,manchmal,öfters,meistens	1.0	19:51:9	138.232.236.33
9	06JMJ	ADS	82	ADS19	ADS	1	2	2250	2	öfters	Während der letzten Wochen...<br><br>...hatte ich das Gefühl, dass mich die Leute nicht leiden können.,selten,manchmal,öfters,meistens	1.0	19:51:11	138.232.236.33
9	06JMJ	ADS	83	ADS20	ADS	1	1	1852	1	manchmal	Während der letzten Wochen...<br><br>...konnte ich mich zu nichts aufraffen.,selten,manchmal,öfters,meistens	1.0	19:51:13	138.232.236.33
8	21RNR	PID5BF34	84	PID5BF01	negaffect	1	2	3459	2	trifft eher zu	Ich reagiere viel emotionaler als fast alle anderen Menschen.,trifft überhaupt nicht zu,trifft eher nicht zu,trifft eher zu,trifft genau zu	1.0	19:49:34	83.175.70.75
8	21RNR	PID5BF34	85	PID5BF02	antagonism	1	0	3956	0	trifft überhaupt nicht zu	Ich bin gut darin, Leute reinzulegen.,trifft überhaupt nicht zu,trifft eher nicht zu,trifft eher zu,trifft genau zu	1.0	19:49:37	83.175.70.75
8	21RNR	PID5BF34	86	PID5BF03	disinhibition	1	2	2611	2	trifft eher zu	Ich gehe oft ziemlich nachlässig mit meinen Sachen und denen anderer um.,trifft überhaupt nicht zu,trifft eher nicht zu,trifft eher zu,trifft genau zu	1.0	19:49:42	83.175.70.75
8	21RNR	PID5BF34	87	PID5BF04	detachment	1	1	2080	1	trifft eher nicht zu	Ich halte Abstand zu Menschen.,trifft überhaupt nicht zu,trifft eher nicht zu,trifft eher zu,trifft genau zu	1.0	19:49:45	83.175.70.75
8	21RNR	PID5BF34	88	PID5BF05	psychoticism	1	2	3003	2	trifft eher zu	Ich sehe zwischen den Dingen oft ungewöhnliche Zusammenhänge, die anderen Menschen entgehen.,trifft überhaupt nicht zu,trifft eher nicht zu,trifft eher zu,trifft genau zu	1.0	19:49:47	83.175.70.75
8	21RNR	PID5BF34	89	PID5BF06	anancasm	1	1	6242	1	trifft eher nicht zu	Ich gehe Dinge immer auf die gleiche Weise an, auch wenn es so nicht funktioniert.,trifft überhaupt nicht zu,trifft eher nicht zu,trifft eher zu,trifft genau zu	1.0	19:49:50	83.175.70.75
8	21RNR	PID5BF34	90	PID5BF07	negaffect	1	2	2262	2	trifft eher zu	Ich mache mir ständig über irgendetwas Sorgen.,trifft überhaupt nicht zu,trifft eher nicht zu,trifft eher zu,trifft genau zu	1.0	19:49:57	83.175.70.75
8	21RNR	PID5BF34	91	PID5BF08	antagonism	1	2	10726	2	trifft eher zu	Manchmal muss man vor anderen übertreiben, um weiterzukommen.,trifft überhaupt nicht zu,trifft eher nicht zu,trifft eher zu,trifft genau zu	1.0	19:49:59	83.175.70.75
8	21RNR	PID5BF34	92	PID5BF09	disinhibition	1	2	3227	2	trifft eher zu	Es kommt mir vor, als würde ich völlig impulsiv handeln.,trifft überhaupt nicht zu,trifft eher nicht zu,trifft eher zu,trifft genau zu	1.0	19:50:11	83.175.70.75
8	21RNR	PID5BF34	93	PID5BF10	detachment	1	1	3539	1	trifft eher nicht zu	Nichts scheint mich wirklich zu interessieren.,trifft überhaupt nicht zu,trifft eher nicht zu,trifft eher zu,trifft genau zu	1.0	19:50:14	83.175.70.75
8	21RNR	PID5BF34	94	PID5BF11	psychoticism	1	2	3059	2	trifft eher zu	Man hat mir gesagt, dass meine Art zu denken wirklich seltsam ist.,trifft überhaupt nicht zu,trifft eher nicht zu,trifft eher zu,trifft genau zu	1.0	19:50:18	83.175.70.75
8	21RNR	PID5BF34	95	PID5BF12	anancasm	1	1	4701	1	trifft eher nicht zu	Auch wenn es andere zum Wahnsinn treibt, bestehe ich darauf, alles perfekt zu machen.,trifft überhaupt nicht zu,trifft eher nicht zu,trifft eher zu,trifft genau zu	1.0	19:50:21	83.175.70.75
8	21RNR	PID5BF34	96	PID5BF13	negaffect	1	2	6069	2	trifft eher zu	Ich mache mir viele Sorgen darüber, allein zu sein.,trifft überhaupt nicht zu,trifft eher nicht zu,trifft eher zu,trifft genau zu	1.0	19:50:26	83.175.70.75
8	21RNR	PID5BF34	97	PID5BF14	antagonism	1	0	2811	0	trifft überhaupt nicht zu	Es steht mir zu, besonders behandelt zu werden.,trifft überhaupt nicht zu,trifft eher nicht zu,trifft eher zu,trifft genau zu	1.0	19:50:33	83.175.70.75
8	21RNR	PID5BF34	98	PID5BF15	disinhibition	1	1	4806	1	trifft eher nicht zu	Ich verliere in Gesprächen den Faden, weil mich andere Dinge ablenken.,trifft überhaupt nicht zu,trifft eher nicht zu,trifft eher zu,trifft genau zu	1.0	19:50:36	83.175.70.75
8	21RNR	PID5BF34	99	PID5BF16	detachment	1	2	5602	2	trifft eher zu	Ich halte romantische Gefühle lieber aus meinem Leben heraus.,trifft überhaupt nicht zu,trifft eher nicht zu,trifft eher zu,trifft genau zu	1.0	19:50:41	83.175.70.75
8	21RNR	PID5BF34	100	PID5BF17	psychoticism	1	1	6734	1	trifft eher nicht zu	Es ist komisch, aber manchmal kommen mir alltägliche Gegenstände anders vor als sonst.,trifft überhaupt nicht zu,trifft eher nicht zu,trifft eher zu,trifft genau zu	1.0	19:50:47	83.175.70.75
8	21RNR	PID5BF34	101	PID5BF18	anancasm	1	0	2961	0	trifft überhaupt nicht zu	Ich halte an einer bestimmten Herangehensweise fest, auch wenn klar ist, dass es so nicht funktionieren wird.,trifft überhaupt nicht zu,trifft eher nicht zu,trifft eher zu,trifft genau zu	1.0	19:50:54	83.175.70.75
8	21RNR	PID5BF34	102	PID5BF19	negaffect	1	2	3961	2	trifft eher zu	Ich werde schnell emotional, oft aus geringstem Anlass.,trifft überhaupt nicht zu,trifft eher nicht zu,trifft eher zu,trifft genau zu	1.0	19:50:57	83.175.70.75
8	21RNR	PID5BF34	103	PID5BF20	antagonism	1	0	2029	0	trifft überhaupt nicht zu	Es fällt mir leicht, andere auszunutzen.,trifft überhaupt nicht zu,trifft eher nicht zu,trifft eher zu,trifft genau zu	1.0	19:51:1	83.175.70.75
8	21RNR	PID5BF34	104	PID5BF21	disinhibition	1	1	2435	1	trifft eher nicht zu	Ich vergesse oft, meine Rechnungen zu bezahlen.,trifft überhaupt nicht zu,trifft eher nicht zu,trifft eher zu,trifft genau zu	1.0	19:51:4	83.175.70.75
8	21RNR	PID5BF34	105	PID5BF22	detachment	1	0	2597	0	trifft überhaupt nicht zu	Ich mag es nicht, Zeit mit anderen zu verbringen.,trifft überhaupt nicht zu,trifft eher nicht zu,trifft eher zu,trifft genau zu	1.0	19:51:7	83.175.70.75
8	21RNR	PID5BF34	106	PID5BF23	psychoticism	1	0	4990	0	trifft überhaupt nicht zu	Ich hatte einige wirklich seltsame Erlebnisse, die sehr schwer zu erklären sind.,trifft überhaupt nicht zu,trifft eher nicht zu,trifft eher zu,trifft genau zu	1.0	19:51:9	83.175.70.75
8	21RNR	PID5BF34	107	PID5BF24	anancasm	1	0	2990	0	trifft überhaupt nicht zu	Ich versuche Dinge weiter zu perfektionieren, auch wenn ich sie wahrscheinlich schon so gut wie möglich hinbekommen habe.,trifft überhaupt nicht zu,trifft eher nicht zu,trifft eher zu,trifft genau zu	1.0	19:51:15	83.175.70.75
8	21RNR	PID5BF34	108	PID5BF25	negaffect	1	1	7865	1	trifft eher nicht zu	Ich mache mir über fast alles Sorgen.,trifft überhaupt nicht zu,trifft eher nicht zu,trifft eher zu,trifft genau zu	1.0	19:51:18	83.175.70.75
8	21RNR	PID5BF34	109	PID5BF26	antagonism	1	0	1966	0	trifft überhaupt nicht zu	Ich biege mir die Wahrheit zurecht, wenn es zu meinem Vorteil ist.,trifft überhaupt nicht zu,trifft eher nicht zu,trifft eher zu,trifft genau zu	1.0	19:51:26	83.175.70.75
8	21RNR	PID5BF34	110	PID5BF27	disinhibition	1	2	8696	2	trifft eher zu	Obwohl ich es eigentlich besser weiß, treffe ich immer wieder überstürzte Entscheidungen.,trifft überhaupt nicht zu,trifft eher nicht zu,trifft eher zu,trifft genau zu	1.0	19:51:28	83.175.70.75
8	21RNR	PID5BF34	111	PID5BF28	detachment	1	1	2788	1	trifft eher nicht zu	Ich bin selten von irgendetwas begeistert.,trifft überhaupt nicht zu,trifft eher nicht zu,trifft eher zu,trifft genau zu	1.0	19:51:37	83.175.70.75
8	21RNR	PID5BF34	112	PID5BF29	psychoticism	1	1	5426	1	trifft eher nicht zu	Ich habe mehrere Angewohnheiten, die andere exzentrisch oder seltsam finden.,trifft überhaupt nicht zu,trifft eher nicht zu,trifft eher zu,trifft genau zu	1.0	19:51:41	83.175.70.75
8	21RNR	PID5BF34	113	PID5BF30	negaffect	1	0	2483	0	trifft überhaupt nicht zu	Ich ertrage es nicht, allein gelassen zu werden – nicht mal für ein paar Stunden.,trifft überhaupt nicht zu,trifft eher nicht zu,trifft eher zu,trifft genau zu	1.0	19:51:46	83.175.70.75
8	21RNR	PID5BF34	114	PID5BF31	antagonism	1	0	4210	0	trifft überhaupt nicht zu	Ich muss mich oft mit Leuten beschäftigen, die weniger wichtig sind als ich.,trifft überhaupt nicht zu,trifft eher nicht zu,trifft eher zu,trifft genau zu	1.0	19:51:49	83.175.70.75
8	21RNR	PID5BF34	115	PID5BF32	disinhibition	1	2	3289	2	trifft eher zu	Ich lasse mich leicht ablenken.,trifft überhaupt nicht zu,trifft eher nicht zu,trifft eher zu,trifft genau zu	1.0	19:51:54	83.175.70.75
8	21RNR	PID5BF34	116	PID5BF33	detachment	1	1	2119	1	trifft eher nicht zu	Ich beende Beziehungen, wenn sie enger werden.,trifft überhaupt nicht zu,trifft eher nicht zu,trifft eher zu,trifft genau zu	1.0	19:51:57	83.175.70.75
8	21RNR	PID5BF34	117	PID5BF34	psychoticism	1	2	6201	2	trifft eher zu	Wenn ich einen vertrauten Gegenstand anschaue, ist es manchmal so, als würde ich ihn zum ersten Mal sehen.,trifft überhaupt nicht zu,trifft eher nicht zu,trifft eher zu,trifft genau zu	1.0	19:52:0	83.175.70.75
8	21RNR	SD4	118	SD401	Mach	1	4	4283	3	4	Es ist nicht ratsam, seine Geheimnisse preiszugeben.,1 (stimme überhaupt nicht zu),2,3,4,5 (stimme voll zu)	1.0	19:52:8	83.175.70.75
8	21RNR	SD4	119	SD402	Mach	1	1	2988	0	1 (stimme überhaupt nicht zu)	Man muss die wichtigen Personen auf seine Seite ziehen, koste es, was es wolle.,1 (stimme überhaupt nicht zu),2,3,4,5 (stimme voll zu)	1.0	19:52:13	83.175.70.75
8	21RNR	SD4	120	SD403	Mach	1	2	5079	1	2	Vermeide direkte Konflikte mit Anderen, denn sie könnten in der Zukunft von Nutzen sein.,1 (stimme überhaupt nicht zu),2,3,4,5 (stimme voll zu)	1.0	19:52:16	83.175.70.75
8	21RNR	SD4	121	SD404	Mach	1	1	4306	0	1 (stimme überhaupt nicht zu)	Verhalte dich unauffällig, wenn du deinen Willen durchsetzen willst.,1 (stimme überhaupt nicht zu),2,3,4,5 (stimme voll zu)	1.0	19:52:21	83.175.70.75
8	21RNR	SD4	122	SD405	Mach	1	4	3205	3	4	Die Situation zu manipulieren, erfordert Planung.,1 (stimme überhaupt nicht zu),2,3,4,5 (stimme voll zu)	1.0	19:52:26	83.175.70.75
8	21RNR	SD4	123	SD406	Mach	1	3	8274	2	3	Schmeicheln ist ein gutes Mittel, um Leute auf deine Seite zu ziehen.,1 (stimme überhaupt nicht zu),2,3,4,5 (stimme voll zu)	1.0	19:52:30	83.175.70.75
8	21RNR	SD4	124	SD407	Mach	1	2	6457	1	2	Ich liebe es, wenn ein kniffliger Plan gelingt.,1 (stimme überhaupt nicht zu),2,3,4,5 (stimme voll zu)	1.0	19:52:38	83.175.70.75
8	21RNR	SD4	125	SD408	Narc	1	2	2102	1	2	Andere sehen mich als geborene Führungsperson.,1 (stimme überhaupt nicht zu),2,3,4,5 (stimme voll zu)	1.0	19:52:45	83.175.70.75
8	21RNR	SD4	126	SD409	Narc	1	2	2876	1	2	Ich habe eine einzigartige Begabung, andere zu überzeugen.,1 (stimme überhaupt nicht zu),2,3,4,5 (stimme voll zu)	1.0	19:52:47	83.175.70.75
8	21RNR	SD4	127	SD410	Narc	1	2	2517	1	2	Gruppenaktivitäten sind ohne mich eher langweilig.,1 (stimme überhaupt nicht zu),2,3,4,5 (stimme voll zu)	1.0	19:52:51	83.175.70.75
8	21RNR	SD4	128	SD411	Narc	1	3	6131	2	3	Ich weiß, dass ich etwas Besonderes bin, da mir andere das immer wieder sagen.,1 (stimme überhaupt nicht zu),2,3,4,5 (stimme voll zu)	1.0	19:52:53	83.175.70.75
8	21RNR	SD4	129	SD412	Narc	1	4	2267	3	4	Ich habe einige außergewöhnliche Qualitäten.,1 (stimme überhaupt nicht zu),2,3,4,5 (stimme voll zu)	1.0	19:53:0	83.175.70.75
8	21RNR	SD4	130	SD413	Narc	1	2	5358	1	2	Ich werde in der Zukunft wahrscheinlich ein Star in einem bestimmten Bereich sein.,1 (stimme überhaupt nicht zu),2,3,4,5 (stimme voll zu)	1.0	19:53:2	83.175.70.75
8	21RNR	SD4	131	SD414	Narc	1	3	5254	2	3	Ich mag es, hin und wieder anzugeben.,1 (stimme überhaupt nicht zu),2,3,4,5 (stimme voll zu)	1.0	19:53:8	83.175.70.75
8	21RNR	SD4	132	SD415	Psyc	1	2	3828	1	2	Menschen sagen oft, dass ich außer Kontrolle bin.,1 (stimme überhaupt nicht zu),2,3,4,5 (stimme voll zu)	1.0	19:53:14	83.175.70.75
8	21RNR	SD4	133	SD416	Psyc	1	3	7531	2	3	Ich neige dazu, gegen Autoritäten und deren Regeln zu kämpfen.,1 (stimme überhaupt nicht zu),2,3,4,5 (stimme voll zu)	1.0	19:53:18	83.175.70.75
8	21RNR	SD4	134	SD417	Psyc	1	3	10117	2	3	Ich war in mehr Auseinandersetzungen verwickelt als die meisten Menschen meines Alters und Geschlechts.,1 (stimme überhaupt nicht zu),2,3,4,5 (stimme voll zu)	1.0	19:53:26	83.175.70.75
8	21RNR	SD4	135	SD418	Psyc	1	2	2979	1	2	Ich neige dazu, mich kopfüber in etwas zu stürzen ohne Fragen zu stellen.,1 (stimme überhaupt nicht zu),2,3,4,5 (stimme voll zu)	1.0	19:53:36	83.175.70.75
8	21RNR	SD4	136	SD419	Psyc	1	1	2448	0	1 (stimme überhaupt nicht zu)	Ich hatte schon Schwierigkeiten mit dem Gesetz.,1 (stimme überhaupt nicht zu),2,3,4,5 (stimme voll zu)	1.0	19:53:39	83.175.70.75
8	21RNR	SD4	137	SD420	Psyc	1	2	2380	1	2	Ich gerate manchmal in gefährliche Situationen.,1 (stimme überhaupt nicht zu),2,3,4,5 (stimme voll zu)	1.0	19:53:42	83.175.70.75
8	21RNR	SD4	138	SD421	Psyc	1	1	2319	0	1 (stimme überhaupt nicht zu)	Leute, die sich mit mir anlegen, bereuen es immer,1 (stimme überhaupt nicht zu),2,3,4,5 (stimme voll zu)	1.0	19:53:45	83.175.70.75
8	21RNR	SD4	139	SD422	Sad	1	1	2807	0	1 (stimme überhaupt nicht zu)	Bei einem Faustkampf zuzuschauen begeistert mich.,1 (stimme überhaupt nicht zu),2,3,4,5 (stimme voll zu)	1.0	19:53:47	83.175.70.75
8	21RNR	SD4	140	SD423	Sad	1	1	2134	0	1 (stimme überhaupt nicht zu)	Ich genieße gewalttätige Filme und Computerspiele.,1 (stimme überhaupt nicht zu),2,3,4,5 (stimme voll zu)	1.0	19:53:51	83.175.70.75
8	21RNR	SD4	141	SD424	Sad	1	1	6159	0	1 (stimme überhaupt nicht zu)	Es ist witzig, wenn Idioten auf die Nase fallen.,1 (stimme überhaupt nicht zu),2,3,4,5 (stimme voll zu)	1.0	19:53:53	83.175.70.75
8	21RNR	SD4	142	SD425	Sad	1	1	1519	0	1 (stimme überhaupt nicht zu)	Ich genieße es, bei gewalttätigem Sport zuzuschauen.,1 (stimme überhaupt nicht zu),2,3,4,5 (stimme voll zu)	1.0	19:54:0	83.175.70.75
8	21RNR	SD4	143	SD426	Sad	1	1	1667	0	1 (stimme überhaupt nicht zu)	Manche Menschen verdienen es zu leiden.,1 (stimme überhaupt nicht zu),2,3,4,5 (stimme voll zu)	1.0	19:54:1	83.175.70.75
8	21RNR	SD4	144	SD427	Sad	1	1	3207	0	1 (stimme überhaupt nicht zu)	Rein zum Vergnügen habe ich schonmal gemeine Dinge in sozialen Medien gesagt.,1 (stimme überhaupt nicht zu),2,3,4,5 (stimme voll zu)	1.0	19:54:3	83.175.70.75
8	21RNR	SD4	145	SD428	Sad	1	3	4026	2	3	Ich weiß, wie ich jemanden allein mit Worten verletzen kann.,1 (stimme überhaupt nicht zu),2,3,4,5 (stimme voll zu)	1.0	19:54:7	83.175.70.75
8	21RNR	Ukraine	146	weltgeschehen1	worldevents	-1	1	3284	0	Ja	Fühlen Sie sich von der aktuellen Situation in der Ukraine bedroht?,Ja,Nein,Möchte nicht antworten	2.0	19:54:13	83.175.70.75
8	21RNR	Ukraine	147	weltgeschehen2	worldevents	-1	1	2017	0	Ja	Sind Sie oder eine nahestehende Person betroffen?,Ja,Nein,Möchte nicht antworten	2.0	19:54:16	83.175.70.75
8	21RNR	Ukraine	148	weltgeschehen3	worldevents	-1	0	1902	1	Nein	Fühlen Sie sich vom Klimawandel bedroht?,Ja,Nein,Möchte nicht antworten	2.0	19:54:19	83.175.70.75
8	21RNR	Ukraine	149	weltgeschehen4	worldevents	-1	0	1519	1	Nein	Sind Sie oder eine nahestehende Person betroffen?,Ja,Nein,Möchte nicht antworten	2.0	19:54:21	83.175.70.75
8	21RNR	Ukraine	150	weltgeschehen5	worldevents	-1	1	2796	0	Ja	Fühlen Sie sich von der Corona-Pandemie bedroht?,Ja,Nein,Möchte nicht antworten	2.0	19:54:23	83.175.70.75
8	21RNR	Ukraine	151	weltgeschehen6	worldevents	-1	1	1934	0	Ja	Sind Sie oder eine nahestehende Person aktuell betroffen?,Ja,Nein,Möchte nicht antworten	2.0	19:54:26	83.175.70.75
13	04BPD	LOGON	0			0		0					9.6.2022 20:11 GMT+0200	83.175.66.101
13	04BPD	SST_DarkPersonality_V1	2	JC2B04	JUPNO	0	POS	4152	6	pos:6,neg:1	gesichert,wird,Macht,am,besten,aufgeteilt,block:1	1.0	20:12:15	83.175.66.101
13	04BPD	SST_DarkPersonality_V1	3	H7B13	HUPNS	0	POS	1770	6	pos:6,neg:2	langsam,gequält,wird,Tier,das,gefüttert,block:1	1.0	20:12:20	83.175.66.101
13	04BPD	SST_DarkPersonality_V1	4	H2A02	HUPNS	0	NEG	2508	6	pos:1,neg:6	lobenswert,findet,Hilfsorganisationen,Tim,heutzutage,sinnlos,block:1	1.0	20:12:22	83.175.66.101
13	04BPD	SST_DarkPersonality_V1	5	JM4B08	JUPNO	0	NEG	4837	1	pos:2,neg:1	individuell,universal,moralische,sind,meistens,Standards,block:1	1.0	20:12:25	83.175.66.101
13	04BPD	SST_DarkPersonality_V1	6	H10B19	HUPNS	0	NEG	1918	3	pos:1,neg:3	böse,von,schlau,anderen,profitieren,ist,block:1	1.0	20:12:30	83.175.66.101
13	04BPD	SST_DarkPersonality_V1	7	H2A22	HUPNS	0	POS	2501	1	pos:1,neg:6	lachen,andere,Menschen,sollen,oft,leiden,block:1	1.0	20:12:32	83.175.66.101
13	04BPD	SST_DarkPersonality_V1	8	JN2A03	JUPNS	0	POS	3976	1	pos:1,neg:6	nutzen,Anführer,Macht,sollen,ihre,auskosten,block:1	1.0	20:12:35	83.175.66.101
13	04BPD	SST_DarkPersonality_V1	9	JT8B16	JUPNO	0	NEG	2538	1	pos:5,neg:1	erfunden,Erzählungen,Ehrlichkeit,über,inspirierend,sind,block:1	1.0	20:12:39	83.175.66.101
13	04BPD	SST_DarkPersonality_V1	10	JT5A09	JUPNO	0	POS	1036	2	pos:2,neg:4	ist,unentbehrlich,Moral,überflüssig,in,Notzeiten,block:1	1.0	20:12:42	83.175.66.101
13	04BPD	SST_DarkPersonality_V1	11	H1A20	HUPNS	0	ERROR	1278	5	pos:1,neg:6	trösten,Tim,wird,Menschen,notleidende,ignorieren,block:1	1.0	20:12:43	83.175.66.101
13	04BPD	SST_DarkPersonality_V1	12	N4r_V2_3PN	N	1	NEU	4087	6	pos:5,neg:6	Kinder,im,die,spielen,Wasser,Sand	1.0	20:12:45	83.175.66.101
13	04BPD	SST_DarkPersonality_V1	13	H5B09	HUPNS	0	POS	2686	4	pos:4,neg:2	anvertraute,einsetzen,Geheimnisse,behüten,kann,man,block:1	1.0	20:12:49	83.175.66.101
13	04BPD	SST_DarkPersonality_V1	14	H4B07	HUPNS	0	POS	2270	2	pos:2,neg:1	geprügelt,getröstet,der,kleine,wird,Tim,block:1	1.0	20:12:52	83.175.66.101
13	04BPD	SST_DarkPersonality_V1	15	JS3A05	JUPNS	0	POS	1738	5	pos:5,neg:6	andere,der,Stärkere,kann,aufheitern,schikanieren,block:1	1.0	20:12:55	83.175.66.101
13	04BPD	SST_DarkPersonality_V1	16	H3A04	HUPNO	0	POS	1883	5	pos:5,neg:6	Raub,als,Einkommensquelle,ist,ungerecht,klug,block:1	1.0	20:12:57	83.175.66.101
13	04BPD	SST_DarkPersonality_V1	17	JC10A19	JUPNS	0	POS	1550	3	pos:3,neg:1	blödsinnig,für,bewundernswert,Charities,spenden,ist,block:1	1.0	20:12:59	83.175.66.101
13	04BPD	SST_DarkPersonality_V1	18	N1r_V2_2PN	N	-1	NEU	2261	6	pos:1,neg:6	gehört,habe,ich,es,mehrmals,gesehen	1.0	20:13:1	83.175.66.101
13	04BPD	SST_DarkPersonality_V1	19	H9B17	HUPNS	0	POS	3101	4	pos:4,neg:6	für,spenden,Waisen,wichtig,ist,nutzlos,block:1	1.0	20:13:4	83.175.66.101
13	04BPD	SST_DarkPersonality_V1	20	H4A06	HUPNS	0	ERROR	1714	6	pos:1,neg:2	armselig,spannend,andere,zu,ist,ärgern,block:1	1.0	20:13:7	83.175.66.101
13	04BPD	SST_DarkPersonality_V1	21	H8A14	HUPNS	0	POS	5290	1	pos:1,neg:5	ekelhaft,über,Scherze,andere,spaßig,sind,block:1	1.0	20:13:9	83.175.66.101
13	04BPD	SST_DarkPersonality_V1	22	N6_V2_4PN	N	-1	NEU	3108	2	pos:1,neg:2	Motorrad ,Fahrrad,fahre,dem,mit,ich	1.0	20:13:15	83.175.66.101
13	04BPD	SST_DarkPersonality_V1	23	H3B05	HUPNS	0	POS	1960	6	pos:6,neg:5	Freund,Tim,wird,seinen,ausnutzen,bestärken,block:1	1.0	20:13:18	83.175.66.101
13	04BPD	SST_DarkPersonality_V1	24	H1B21	HUPNS	0	POS	1520	6	pos:6,neg:1	verletzen,Tim,möchte,Menschen,andere,unterstützen,block:1	1.0	20:13:20	83.175.66.101
13	04BPD	SST_DarkPersonality_V1	25	JM4A07	JUPNO	0	POS	4717	1	pos:1,neg:2	erforderlich,hinderlich,bestehende,sind,oft,Vorschriften,block:1	1.0	20:13:22	83.175.66.101
13	04BPD	SST_DarkPersonality_V1	26	H6A10	HUPNS	0	POS	1882	3	pos:3,neg:5	der,kleine,gelobt,Tim,verhauen,wird,block:1	1.0	20:13:27	83.175.66.101
13	04BPD	SST_DarkPersonality_V1	27	JM7A13	JUPNO	0	NEG	1952	6	pos:2,neg:6	Entscheidungen,kulturell,über,Moral,sind,persönlich,block:1	1.0	20:13:29	83.175.66.101
13	04BPD	SST_DarkPersonality_V1	28	H5A08	HUPNS	0	POS	1891	2	pos:2,neg:4	wurde,geküsst,Tim,geschlagen,bereits,mehrmals,block:1	1.0	20:13:31	83.175.66.101
13	04BPD	SST_DarkPersonality_V1	29	N10_V2_8PN	N	-1	NEU	1854	5	pos:1,neg:5	Frühling ,im,Geburtstag,mein,Sommer,ist	1.0	20:13:34	83.175.66.101
13	04BPD	SST_DarkPersonality_V1	30	H7A12	HUPNS	0	POS	2401	2	pos:2,neg:6	absichtlich,gestreichelt,wird,Hund,der,getreten,block:1	1.0	20:13:36	83.175.66.101
13	04BPD	SST_DarkPersonality_V1	31	H2B03	HUPNS	0	POS	2398	6	pos:6,neg:1	herablassend,Tim,behandelt,andere,immer,freundlich,block:1	1.0	20:13:39	83.175.66.101
13	04BPD	SST_DarkPersonality_V1	32	JT9A17	JUPNO	0	ERROR	2550	1	pos:6,neg:4	ethische,Grenzen,sind,Erfindung,eine,Notwendigkeit,block:1	1.0	20:13:41	83.175.66.101
13	04BPD	SST_DarkPersonality_V1	33	H1B01	HUPNS	0	POS	4003	6	pos:6,neg:1	idiotisch,Dinge,zu,teilen,ist,schön,block:1	1.0	20:13:44	83.175.66.101
13	04BPD	SST_DarkPersonality_V1	34	H9A16	HUPNS	0	POS	3277	6	pos:6,neg:4	im,sieht,Fernsehen,Boxkämpfe,Tim,Tennis,block:1	1.0	20:13:48	83.175.66.101
13	04BPD	SST_DarkPersonality_V1	35	JC10B20	JUPNS	0	ERROR	3879	4	pos:1,neg:3	andere,Menschen,sich,meistens,achten,auf,block:1	1.0	20:13:52	83.175.66.101
13	04BPD	SST_DarkPersonality_V1	36	H10A18	HUPNS	0	NEG	2285	1	pos:3,neg:1	aufregend,andere,beunruhigend,zu,verletzen,ist,block:1	1.0	20:13:56	83.175.66.101
13	04BPD	SST_DarkPersonality_V1	37	JC1A21	JUPNS	0	POS	4463	1	pos:1,neg:6	großzügig,an,Hilfsorganisationen,spenden,ist,blauäugig,block:1	1.0	20:13:59	83.175.66.101
13	04BPD	SST_DarkPersonality_V1	38	H2B23	HUPNO	0	NEG	3421	1	pos:6,neg:1	hilfreich,Anerkennung,Unverdientes,für,ist,falsch,block:1	1.0	20:14:4	83.175.66.101
13	04BPD	SST_DarkPersonality_V1	39	JC1A01	JUPNS	0	POS	4556	1	pos:1,neg:6	verstehen,man,kann,Menschen,leicht,manipulieren,block:1	1.0	20:14:7	83.175.66.101
13	04BPD	SST_DarkPersonality_V1	40	JS5B10	JUPNS	0	POS	2723	4	pos:4,neg:2	die,Verachtung,Menschen,Respekt,meisten,verdienen,block:1	1.0	20:14:12	83.175.66.101
13	04BPD	SST_DarkPersonality_V1	41	JS1B02	JUPNS	0	POS	2060	6	pos:6,neg:1	ausbeuten,schwächere,kann,Menschen,man,ermutigen,block:1	1.0	20:14:15	83.175.66.101
13	04BPD	SST_DarkPersonality_V1	42	JS6A11	JUPNS	0	POS	2483	3	pos:3,neg:5	die,sind,beschäftigt,meisten,Versager,sowieso,block:1	1.0	20:14:17	83.175.66.101
13	04BPD	SST_DarkPersonality_V1	43	JS9B18	JUPNS	0	NEG	6619	6	pos:4,neg:6	Menschen,schwache,sind,gemein,weniger,wert,block:1	1.0	20:14:20	83.175.66.101
13	04BPD	SST_DarkPersonality_V1	44	JA7B14	JUPNS	0	MISS	0	0	pos:6,neg:2	anderen,einfältig,zu,folgen,ist,intelligent,block:1	1.0	20:14:27	83.175.66.101
13	04BPD	SST_DarkPersonality_V1	45	JC8A15	JUPNS	0	POS	2289	1	pos:1,neg:5	nett,anderen,helfen,zu,dumm,ist,block:1	1.0	20:14:35	83.175.66.101
13	04BPD	SST_DarkPersonality_V1	46	JM3B06	JUPNS	0	NEG	1857	5	pos:6,neg:5	schädigen,andere,zu,ist,unvermeidlich,verboten,block:1	1.0	20:14:38	83.175.66.101
13	04BPD	SST_DarkPersonality_V1	47	H6B11	HUPNO	0	POS	1393	5	pos:5,neg:3	im,Sport,spektakulär,Fouls,ungerecht,sind,block:1	1.0	20:14:40	83.175.66.101
13	04BPD	SST_DarkPersonality_V1	48	JS6B12	JUPNS	0	POS	2135	5	pos:5,neg:3	einige,Gruppen,überlegen,anderen,ebenbürtig,sind,block:1	1.0	20:14:42	83.175.66.101
13	04BPD	SST_DarkPersonality_V1	49	N30_V2_7PN	N	-1	NEU	2866	6	pos:2,neg:6	bin,draußen,immer,ich,fast,unterwegs	1.0	20:14:44	83.175.66.101
13	04BPD	SST_DarkPersonality_V1	50	H8B15	HUPNS	0	POS	4122	5	pos:5,neg:1	lustig,andere,verspotten,zu,unzulänglich,ist,block:1	1.0	20:14:47	83.175.66.101
13	04BPD	SSTWW	51	SSTWW1	SSTWW	-1	1	3535	0	Ja	Haben Sie den vorausgegangenen Test bereits in einer Studie in der Vergangenheit bearbeitet?,Ja,Nein,Weiß ich nicht mehr	1.0	20:14:54	83.175.66.101
13	04BPD	LPFSBF	52	LPFSBF01	self	1	2	3810	1	trifft eher nicht zu	Ich weiß oft nicht wer ich wirklich bin.,trifft überhaupt nicht zu,trifft eher nicht zu,trifft eher zu,trifft genau zu	1.0	20:15:2	83.175.66.101
13	04BPD	LPFSBF	53	LPFSBF02	self	1	3	2934	2	trifft eher zu	Ich denke oft sehr schlecht über mich selbst.,trifft überhaupt nicht zu,trifft eher nicht zu,trifft eher zu,trifft genau zu	1.0	20:15:6	83.175.66.101
13	04BPD	LPFSBF	54	LPFSBF03	self	1	2	2812	1	trifft eher nicht zu	Meine Gefühle ändern sich, ohne dass ich sie im Griff habe.,trifft überhaupt nicht zu,trifft eher nicht zu,trifft eher zu,trifft genau zu	1.0	20:15:9	83.175.66.101
13	04BPD	LPFSBF	55	LPFSBF04	self	1	2	965	1	trifft eher nicht zu	Ich habe keine Ahnung, wo ich im Leben hin will.,trifft überhaupt nicht zu,trifft eher nicht zu,trifft eher zu,trifft genau zu	1.0	20:15:12	83.175.66.101
13	04BPD	LPFSBF	56	LPFSBF05	self	1	2	744	1	trifft eher nicht zu	Ich verstehe oft meine eigenen Gedanken und Gefühle nicht.,trifft überhaupt nicht zu,trifft eher nicht zu,trifft eher zu,trifft genau zu	1.0	20:15:13	83.175.66.101
13	04BPD	LPFSBF	57	LPFSBF06	self	1	3	678	2	trifft eher zu	Ich stelle oft unrealistische Anforderungen an mich selbst.,trifft überhaupt nicht zu,trifft eher nicht zu,trifft eher zu,trifft genau zu	1.0	20:15:14	83.175.66.101
13	04BPD	LPFSBF	58	LPFSBF07	interpersonal	1	2	546	1	trifft eher nicht zu	Ich habe oft Schwierigkeiten, die Gedanken und Gefühle anderer zu verstehen.,trifft überhaupt nicht zu,trifft eher nicht zu,trifft eher zu,trifft genau zu	1.0	20:15:15	83.175.66.101
13	04BPD	LPFSBF	59	LPFSBF08	interpersonal	1	3	725	2	trifft eher zu	Ich kann es oft schwer aushalten, wenn andere eine andere Meinung haben.,trifft überhaupt nicht zu,trifft eher nicht zu,trifft eher zu,trifft genau zu	1.0	20:15:16	83.175.66.101
13	04BPD	LPFSBF	60	LPFSBF09	interpersonal	1	2	613	1	trifft eher nicht zu	Ich verstehe oft nicht ganz warum mein Verhalten einen bestimmten Einfluss auf andere hat.,trifft überhaupt nicht zu,trifft eher nicht zu,trifft eher zu,trifft genau zu	1.0	20:15:17	83.175.66.101
13	04BPD	LPFSBF	61	LPFSBF10	interpersonal	1	3	645	2	trifft eher zu	Meine Beziehungen und Freundschaften halten nie lange.,trifft überhaupt nicht zu,trifft eher nicht zu,trifft eher zu,trifft genau zu	1.0	20:15:18	83.175.66.101
13	04BPD	LPFSBF	62	LPFSBF11	interpersonal	1	2	566	1	trifft eher nicht zu	Ich fühle mich oft sehr verletzlich, wenn Beziehungen persönlicher werden.,trifft überhaupt nicht zu,trifft eher nicht zu,trifft eher zu,trifft genau zu	1.0	20:15:19	83.175.66.101
13	04BPD	LPFSBF	63	LPFSBF12	interpersonal	1	2	562	1	trifft eher nicht zu	Es gelingt mir häufig nicht, mit anderen auf eine Weise zusammen zu arbeiten, die für beide Seiten zufriedenstellend ist.,trifft überhaupt nicht zu,trifft eher nicht zu,trifft eher zu,trifft genau zu	1.0	20:15:20	83.175.66.101
13	04BPD	ADS	64	ADS01	ADS	1	0	3015	0	selten	Während der letzten Wochen...<br><br>...haben mich Dinge beunruhigt die mir sonst nichts ausmachen.,selten,manchmal,öfters,meistens	1.0	20:15:24	83.175.66.101
13	04BPD	ADS	65	ADS02	ADS	1	1	449	1	manchmal	Während der letzten Wochen...<br><br>...hatte ich kaum Appetit.,selten,manchmal,öfters,meistens	1.0	20:15:28	83.175.66.101
13	04BPD	ADS	66	ADS03	ADS	1	0	480	0	selten	Während der letzten Wochen...<br><br>...konnte ich meine trübsinnige Laune nicht loswerden, obwohl meine Freunde oder Familie versuchten, mich aufzumuntern.,selten,manchmal,öfters,meistens	1.0	20:15:28	83.175.66.101
13	04BPD	ADS	67	ADS04	ADS	-1	1	443	2	öfters	Während der letzten Wochen...<br><br>...kam ich mir genauso gut vor wie andere.,selten,manchmal,öfters,meistens	1.0	20:15:29	83.175.66.101
13	04BPD	ADS	68	ADS05	ADS	1	0	1162	0	selten	Während der letzten Wochen...<br><br>...hatte ich Mühe, mich zu konzentrieren.,selten,manchmal,öfters,meistens	1.0	20:15:30	83.175.66.101
13	04BPD	ADS	69	ADS06	ADS	1	1	1040	1	manchmal	Während der letzten Wochen...<br><br>...war ich deprimiert / niedergeschlagen.,selten,manchmal,öfters,meistens	1.0	20:15:31	83.175.66.101
13	04BPD	ADS	70	ADS07	ADS	1	0	1265	0	selten	Während der letzten Wochen...<br><br>...war alles anstrengend für mich.,selten,manchmal,öfters,meistens	1.0	20:15:33	83.175.66.101
13	04BPD	ADS	71	ADS08	ADS	-1	2	727	1	manchmal	Während der letzten Wochen...<br><br>...dachte ich voller Hoffnung an die Zukunft.,selten,manchmal,öfters,meistens	1.0	20:15:34	83.175.66.101
13	04BPD	ADS	72	ADS09	ADS	1	0	595	0	selten	Während der letzten Wochen...<br><br>...dachte ich, mein Leben ist ein einziger Fehlschlag.,selten,manchmal,öfters,meistens	1.0	20:15:35	83.175.66.101
13	04BPD	ADS	73	ADS10	ADS	1	2	611	2	öfters	Während der letzten Wochen...<br><br>...hatte ich Angst.,selten,manchmal,öfters,meistens	1.0	20:15:36	83.175.66.101
13	04BPD	ADS	74	ADS11	ADS	1	1	670	1	manchmal	Während der letzten Wochen...<br><br>...habe ich schlecht geschlafen.,selten,manchmal,öfters,meistens	1.0	20:15:37	83.175.66.101
13	04BPD	ADS	75	ADS12	ADS	-1	1	1693	2	öfters	Während der letzten Wochen...<br><br>...war ich fröhlich gestimmt.,selten,manchmal,öfters,meistens	1.0	20:15:38	83.175.66.101
13	04BPD	ADS	76	ADS13	ADS	1	1	1387	1	manchmal	Während der letzten Wochen...<br><br>...habe ich weniger als sonst geredet.,selten,manchmal,öfters,meistens	1.0	20:15:40	83.175.66.101
13	04BPD	ADS	77	ADS14	ADS	1	1	1882	1	manchmal	Während der letzten Wochen...<br><br>...fühlte ich mich einsam.,selten,manchmal,öfters,meistens	1.0	20:15:42	83.175.66.101
13	04BPD	ADS	78	ADS15	ADS	1	1	974	1	manchmal	Während der letzten Wochen...<br><br>...waren die Leute unfreundlich zu mir.,selten,manchmal,öfters,meistens	1.0	20:15:44	83.175.66.101
13	04BPD	ADS	79	ADS16	ADS	-1	1	1360	2	öfters	Während der letzten Wochen...<br><br>...habe ich das Leben genossen.,selten,manchmal,öfters,meistens	1.0	20:15:45	83.175.66.101
13	04BPD	ADS	80	ADS17	ADS	1	1	961	1	manchmal	Während der letzten Wochen...<br><br>...musste ich weinen.,selten,manchmal,öfters,meistens	1.0	20:15:47	83.175.66.101
13	04BPD	ADS	81	ADS18	ADS	1	0	1024	0	selten	Während der letzten Wochen...<br><br>...war ich traurig.,selten,manchmal,öfters,meistens	1.0	20:15:48	83.175.66.101
13	04BPD	ADS	82	ADS19	ADS	1	1	850	1	manchmal	Während der letzten Wochen...<br><br>...hatte ich das Gefühl, dass mich die Leute nicht leiden können.,selten,manchmal,öfters,meistens	1.0	20:15:50	83.175.66.101
13	04BPD	ADS	83	ADS20	ADS	1	1	2517	1	manchmal	Während der letzten Wochen...<br><br>...konnte ich mich zu nichts aufraffen.,selten,manchmal,öfters,meistens	1.0	20:15:51	83.175.66.101
14	16LSP	LOGON	0			0		0					9.6.2022 20:16 GMT+0200	85.90.136.172
13	04BPD	PID5BF34	84	PID5BF01	negaffect	1	1	2114	1	trifft eher nicht zu	Ich reagiere viel emotionaler als fast alle anderen Menschen.,trifft überhaupt nicht zu,trifft eher nicht zu,trifft eher zu,trifft genau zu	1.0	20:15:56	83.175.66.101
13	04BPD	PID5BF34	85	PID5BF02	antagonism	1	1	528	1	trifft eher nicht zu	Ich bin gut darin, Leute reinzulegen.,trifft überhaupt nicht zu,trifft eher nicht zu,trifft eher zu,trifft genau zu	1.0	20:15:58	83.175.66.101
13	04BPD	PID5BF34	86	PID5BF03	disinhibition	1	0	2011	0	trifft überhaupt nicht zu	Ich gehe oft ziemlich nachlässig mit meinen Sachen und denen anderer um.,trifft überhaupt nicht zu,trifft eher nicht zu,trifft eher zu,trifft genau zu	1.0	20:15:59	83.175.66.101
13	04BPD	PID5BF34	87	PID5BF04	detachment	1	1	459	1	trifft eher nicht zu	Ich halte Abstand zu Menschen.,trifft überhaupt nicht zu,trifft eher nicht zu,trifft eher zu,trifft genau zu	1.0	20:16:1	83.175.66.101
13	04BPD	PID5BF34	88	PID5BF05	psychoticism	1	2	1879	2	trifft eher zu	Ich sehe zwischen den Dingen oft ungewöhnliche Zusammenhänge, die anderen Menschen entgehen.,trifft überhaupt nicht zu,trifft eher nicht zu,trifft eher zu,trifft genau zu	1.0	20:16:2	83.175.66.101
13	04BPD	PID5BF34	89	PID5BF06	anancasm	1	1	456	1	trifft eher nicht zu	Ich gehe Dinge immer auf die gleiche Weise an, auch wenn es so nicht funktioniert.,trifft überhaupt nicht zu,trifft eher nicht zu,trifft eher zu,trifft genau zu	1.0	20:16:4	83.175.66.101
13	04BPD	PID5BF34	90	PID5BF07	negaffect	1	2	497	2	trifft eher zu	Ich mache mir ständig über irgendetwas Sorgen.,trifft überhaupt nicht zu,trifft eher nicht zu,trifft eher zu,trifft genau zu	1.0	20:16:5	83.175.66.101
13	04BPD	PID5BF34	91	PID5BF08	antagonism	1	1	607	1	trifft eher nicht zu	Manchmal muss man vor anderen übertreiben, um weiterzukommen.,trifft überhaupt nicht zu,trifft eher nicht zu,trifft eher zu,trifft genau zu	1.0	20:16:6	83.175.66.101
13	04BPD	PID5BF34	92	PID5BF09	disinhibition	1	0	2439	0	trifft überhaupt nicht zu	Es kommt mir vor, als würde ich völlig impulsiv handeln.,trifft überhaupt nicht zu,trifft eher nicht zu,trifft eher zu,trifft genau zu	1.0	20:16:7	83.175.66.101
13	04BPD	PID5BF34	93	PID5BF10	detachment	1	0	941	0	trifft überhaupt nicht zu	Nichts scheint mich wirklich zu interessieren.,trifft überhaupt nicht zu,trifft eher nicht zu,trifft eher zu,trifft genau zu	1.0	20:16:10	83.175.66.101
13	04BPD	PID5BF34	94	PID5BF11	psychoticism	1	0	607	0	trifft überhaupt nicht zu	Man hat mir gesagt, dass meine Art zu denken wirklich seltsam ist.,trifft überhaupt nicht zu,trifft eher nicht zu,trifft eher zu,trifft genau zu	1.0	20:16:11	83.175.66.101
13	04BPD	PID5BF34	95	PID5BF12	anancasm	1	0	680	0	trifft überhaupt nicht zu	Auch wenn es andere zum Wahnsinn treibt, bestehe ich darauf, alles perfekt zu machen.,trifft überhaupt nicht zu,trifft eher nicht zu,trifft eher zu,trifft genau zu	1.0	20:16:12	83.175.66.101
13	04BPD	PID5BF34	96	PID5BF13	negaffect	1	1	686	1	trifft eher nicht zu	Ich mache mir viele Sorgen darüber, allein zu sein.,trifft überhaupt nicht zu,trifft eher nicht zu,trifft eher zu,trifft genau zu	1.0	20:16:13	83.175.66.101
13	04BPD	PID5BF34	97	PID5BF14	antagonism	1	1	1212	1	trifft eher nicht zu	Es steht mir zu, besonders behandelt zu werden.,trifft überhaupt nicht zu,trifft eher nicht zu,trifft eher zu,trifft genau zu	1.0	20:16:14	83.175.66.101
13	04BPD	PID5BF34	98	PID5BF15	disinhibition	1	2	1194	2	trifft eher zu	Ich verliere in Gesprächen den Faden, weil mich andere Dinge ablenken.,trifft überhaupt nicht zu,trifft eher nicht zu,trifft eher zu,trifft genau zu	1.0	20:16:15	83.175.66.101
13	04BPD	PID5BF34	99	PID5BF16	detachment	1	1	1937	1	trifft eher nicht zu	Ich halte romantische Gefühle lieber aus meinem Leben heraus.,trifft überhaupt nicht zu,trifft eher nicht zu,trifft eher zu,trifft genau zu	1.0	20:16:17	83.175.66.101
13	04BPD	PID5BF34	100	PID5BF17	psychoticism	1	1	804	1	trifft eher nicht zu	Es ist komisch, aber manchmal kommen mir alltägliche Gegenstände anders vor als sonst.,trifft überhaupt nicht zu,trifft eher nicht zu,trifft eher zu,trifft genau zu	1.0	20:16:19	83.175.66.101
13	04BPD	PID5BF34	101	PID5BF18	anancasm	1	2	1130	2	trifft eher zu	Ich halte an einer bestimmten Herangehensweise fest, auch wenn klar ist, dass es so nicht funktionieren wird.,trifft überhaupt nicht zu,trifft eher nicht zu,trifft eher zu,trifft genau zu	1.0	20:16:20	83.175.66.101
13	04BPD	PID5BF34	102	PID5BF19	negaffect	1	1	1722	1	trifft eher nicht zu	Ich werde schnell emotional, oft aus geringstem Anlass.,trifft überhaupt nicht zu,trifft eher nicht zu,trifft eher zu,trifft genau zu	1.0	20:16:21	83.175.66.101
13	04BPD	PID5BF34	103	PID5BF20	antagonism	1	1	1348	1	trifft eher nicht zu	Es fällt mir leicht, andere auszunutzen.,trifft überhaupt nicht zu,trifft eher nicht zu,trifft eher zu,trifft genau zu	1.0	20:16:23	83.175.66.101
13	04BPD	PID5BF34	104	PID5BF21	disinhibition	1	0	1863	0	trifft überhaupt nicht zu	Ich vergesse oft, meine Rechnungen zu bezahlen.,trifft überhaupt nicht zu,trifft eher nicht zu,trifft eher zu,trifft genau zu	1.0	20:16:25	83.175.66.101
13	04BPD	PID5BF34	105	PID5BF22	detachment	1	0	2106	0	trifft überhaupt nicht zu	Ich mag es nicht, Zeit mit anderen zu verbringen.,trifft überhaupt nicht zu,trifft eher nicht zu,trifft eher zu,trifft genau zu	1.0	20:16:27	83.175.66.101
13	04BPD	PID5BF34	106	PID5BF23	psychoticism	1	0	884	0	trifft überhaupt nicht zu	Ich hatte einige wirklich seltsame Erlebnisse, die sehr schwer zu erklären sind.,trifft überhaupt nicht zu,trifft eher nicht zu,trifft eher zu,trifft genau zu	1.0	20:16:30	83.175.66.101
13	04BPD	PID5BF34	107	PID5BF24	anancasm	1	0	1266	0	trifft überhaupt nicht zu	Ich versuche Dinge weiter zu perfektionieren, auch wenn ich sie wahrscheinlich schon so gut wie möglich hinbekommen habe.,trifft überhaupt nicht zu,trifft eher nicht zu,trifft eher zu,trifft genau zu	1.0	20:16:31	83.175.66.101
13	04BPD	PID5BF34	108	PID5BF25	negaffect	1	1	1352	1	trifft eher nicht zu	Ich mache mir über fast alles Sorgen.,trifft überhaupt nicht zu,trifft eher nicht zu,trifft eher zu,trifft genau zu	1.0	20:16:32	83.175.66.101
13	04BPD	PID5BF34	109	PID5BF26	antagonism	1	1	1204	1	trifft eher nicht zu	Ich biege mir die Wahrheit zurecht, wenn es zu meinem Vorteil ist.,trifft überhaupt nicht zu,trifft eher nicht zu,trifft eher zu,trifft genau zu	1.0	20:16:34	83.175.66.101
13	04BPD	PID5BF34	110	PID5BF27	disinhibition	1	1	2333	1	trifft eher nicht zu	Obwohl ich es eigentlich besser weiß, treffe ich immer wieder überstürzte Entscheidungen.,trifft überhaupt nicht zu,trifft eher nicht zu,trifft eher zu,trifft genau zu	1.0	20:16:36	83.175.66.101
13	04BPD	PID5BF34	111	PID5BF28	detachment	1	1	3166	1	trifft eher nicht zu	Ich bin selten von irgendetwas begeistert.,trifft überhaupt nicht zu,trifft eher nicht zu,trifft eher zu,trifft genau zu	1.0	20:16:38	83.175.66.101
13	04BPD	PID5BF34	112	PID5BF29	psychoticism	1	1	629	1	trifft eher nicht zu	Ich habe mehrere Angewohnheiten, die andere exzentrisch oder seltsam finden.,trifft überhaupt nicht zu,trifft eher nicht zu,trifft eher zu,trifft genau zu	1.0	20:16:42	83.175.66.101
13	04BPD	PID5BF34	113	PID5BF30	negaffect	1	2	1229	2	trifft eher zu	Ich ertrage es nicht, allein gelassen zu werden – nicht mal für ein paar Stunden.,trifft überhaupt nicht zu,trifft eher nicht zu,trifft eher zu,trifft genau zu	1.0	20:16:43	83.175.66.101
13	04BPD	PID5BF34	114	PID5BF31	antagonism	1	1	869	1	trifft eher nicht zu	Ich muss mich oft mit Leuten beschäftigen, die weniger wichtig sind als ich.,trifft überhaupt nicht zu,trifft eher nicht zu,trifft eher zu,trifft genau zu	1.0	20:16:44	83.175.66.101
13	04BPD	PID5BF34	115	PID5BF32	disinhibition	1	0	1015	0	trifft überhaupt nicht zu	Ich lasse mich leicht ablenken.,trifft überhaupt nicht zu,trifft eher nicht zu,trifft eher zu,trifft genau zu	1.0	20:16:45	83.175.66.101
13	04BPD	PID5BF34	116	PID5BF33	detachment	1	1	612	1	trifft eher nicht zu	Ich beende Beziehungen, wenn sie enger werden.,trifft überhaupt nicht zu,trifft eher nicht zu,trifft eher zu,trifft genau zu	1.0	20:16:47	83.175.66.101
13	04BPD	PID5BF34	117	PID5BF34	psychoticism	1	0	661	0	trifft überhaupt nicht zu	Wenn ich einen vertrauten Gegenstand anschaue, ist es manchmal so, als würde ich ihn zum ersten Mal sehen.,trifft überhaupt nicht zu,trifft eher nicht zu,trifft eher zu,trifft genau zu	1.0	20:16:48	83.175.66.101
13	04BPD	SD4	118	SD401	Mach	1	2	3120	1	2	Es ist nicht ratsam, seine Geheimnisse preiszugeben.,1 (stimme überhaupt nicht zu),2,3,4,5 (stimme voll zu)	1.0	20:16:50	83.175.66.101
13	04BPD	SD4	119	SD402	Mach	1	2	2111	1	2	Man muss die wichtigen Personen auf seine Seite ziehen, koste es, was es wolle.,1 (stimme überhaupt nicht zu),2,3,4,5 (stimme voll zu)	1.0	20:16:54	83.175.66.101
13	04BPD	SD4	120	SD403	Mach	1	3	1386	2	3	Vermeide direkte Konflikte mit Anderen, denn sie könnten in der Zukunft von Nutzen sein.,1 (stimme überhaupt nicht zu),2,3,4,5 (stimme voll zu)	1.0	20:16:56	83.175.66.101
13	04BPD	SD4	121	SD404	Mach	1	2	593	1	2	Verhalte dich unauffällig, wenn du deinen Willen durchsetzen willst.,1 (stimme überhaupt nicht zu),2,3,4,5 (stimme voll zu)	1.0	20:16:58	83.175.66.101
13	04BPD	SD4	122	SD405	Mach	1	3	603	2	3	Die Situation zu manipulieren, erfordert Planung.,1 (stimme überhaupt nicht zu),2,3,4,5 (stimme voll zu)	1.0	20:16:59	83.175.66.101
13	04BPD	SD4	123	SD406	Mach	1	2	760	1	2	Schmeicheln ist ein gutes Mittel, um Leute auf deine Seite zu ziehen.,1 (stimme überhaupt nicht zu),2,3,4,5 (stimme voll zu)	1.0	20:16:59	83.175.66.101
13	04BPD	SD4	124	SD407	Mach	1	3	627	2	3	Ich liebe es, wenn ein kniffliger Plan gelingt.,1 (stimme überhaupt nicht zu),2,3,4,5 (stimme voll zu)	1.0	20:17:1	83.175.66.101
13	04BPD	SD4	125	SD408	Narc	1	1	867	0	1 (stimme überhaupt nicht zu)	Andere sehen mich als geborene Führungsperson.,1 (stimme überhaupt nicht zu),2,3,4,5 (stimme voll zu)	1.0	20:17:1	83.175.66.101
13	04BPD	SD4	126	SD409	Narc	1	4	1538	3	4	Ich habe eine einzigartige Begabung, andere zu überzeugen.,1 (stimme überhaupt nicht zu),2,3,4,5 (stimme voll zu)	1.0	20:17:3	83.175.66.101
13	04BPD	SD4	127	SD410	Narc	1	2	2567	1	2	Gruppenaktivitäten sind ohne mich eher langweilig.,1 (stimme überhaupt nicht zu),2,3,4,5 (stimme voll zu)	1.0	20:17:4	83.175.66.101
13	04BPD	SD4	128	SD411	Narc	1	2	1352	1	2	Ich weiß, dass ich etwas Besonderes bin, da mir andere das immer wieder sagen.,1 (stimme überhaupt nicht zu),2,3,4,5 (stimme voll zu)	1.0	20:17:7	83.175.66.101
13	04BPD	SD4	129	SD412	Narc	1	2	1385	1	2	Ich habe einige außergewöhnliche Qualitäten.,1 (stimme überhaupt nicht zu),2,3,4,5 (stimme voll zu)	1.0	20:17:9	83.175.66.101
13	04BPD	SD4	130	SD413	Narc	1	3	1159	2	3	Ich werde in der Zukunft wahrscheinlich ein Star in einem bestimmten Bereich sein.,1 (stimme überhaupt nicht zu),2,3,4,5 (stimme voll zu)	1.0	20:17:11	83.175.66.101
13	04BPD	SD4	131	SD414	Narc	1	2	866	1	2	Ich mag es, hin und wieder anzugeben.,1 (stimme überhaupt nicht zu),2,3,4,5 (stimme voll zu)	1.0	20:17:12	83.175.66.101
13	04BPD	SD4	132	SD415	Psyc	1	2	2171	1	2	Menschen sagen oft, dass ich außer Kontrolle bin.,1 (stimme überhaupt nicht zu),2,3,4,5 (stimme voll zu)	1.0	20:17:13	83.175.66.101
13	04BPD	SD4	133	SD416	Psyc	1	3	2323	2	3	Ich neige dazu, gegen Autoritäten und deren Regeln zu kämpfen.,1 (stimme überhaupt nicht zu),2,3,4,5 (stimme voll zu)	1.0	20:17:16	83.175.66.101
13	04BPD	SD4	134	SD417	Psyc	1	2	760	1	2	Ich war in mehr Auseinandersetzungen verwickelt als die meisten Menschen meines Alters und Geschlechts.,1 (stimme überhaupt nicht zu),2,3,4,5 (stimme voll zu)	1.0	20:17:18	83.175.66.101
13	04BPD	SD4	135	SD418	Psyc	1	2	1089	1	2	Ich neige dazu, mich kopfüber in etwas zu stürzen ohne Fragen zu stellen.,1 (stimme überhaupt nicht zu),2,3,4,5 (stimme voll zu)	1.0	20:17:19	83.175.66.101
13	04BPD	SD4	136	SD419	Psyc	1	3	784	2	3	Ich hatte schon Schwierigkeiten mit dem Gesetz.,1 (stimme überhaupt nicht zu),2,3,4,5 (stimme voll zu)	1.0	20:17:21	83.175.66.101
13	04BPD	SD4	137	SD420	Psyc	1	2	613	1	2	Ich gerate manchmal in gefährliche Situationen.,1 (stimme überhaupt nicht zu),2,3,4,5 (stimme voll zu)	1.0	20:17:22	83.175.66.101
13	04BPD	SD4	138	SD421	Psyc	1	3	521	2	3	Leute, die sich mit mir anlegen, bereuen es immer,1 (stimme überhaupt nicht zu),2,3,4,5 (stimme voll zu)	1.0	20:17:23	83.175.66.101
13	04BPD	SD4	139	SD422	Sad	1	2	574	1	2	Bei einem Faustkampf zuzuschauen begeistert mich.,1 (stimme überhaupt nicht zu),2,3,4,5 (stimme voll zu)	1.0	20:17:24	83.175.66.101
13	04BPD	SD4	140	SD423	Sad	1	3	1303	2	3	Ich genieße gewalttätige Filme und Computerspiele.,1 (stimme überhaupt nicht zu),2,3,4,5 (stimme voll zu)	1.0	20:17:25	83.175.66.101
13	04BPD	SD4	141	SD424	Sad	1	2	628	1	2	Es ist witzig, wenn Idioten auf die Nase fallen.,1 (stimme überhaupt nicht zu),2,3,4,5 (stimme voll zu)	1.0	20:17:26	83.175.66.101
13	04BPD	SD4	142	SD425	Sad	1	3	570	2	3	Ich genieße es, bei gewalttätigem Sport zuzuschauen.,1 (stimme überhaupt nicht zu),2,3,4,5 (stimme voll zu)	1.0	20:17:27	83.175.66.101
13	04BPD	SD4	143	SD426	Sad	1	2	608	1	2	Manche Menschen verdienen es zu leiden.,1 (stimme überhaupt nicht zu),2,3,4,5 (stimme voll zu)	1.0	20:17:28	83.175.66.101
